"trial_type","trial_index","time_elapsed","internal_node_id","userID","sessionType","success","rt","responses","stage","stimulus","key_press","sequence","recall","sequence_last_digits","digit","correct"
"pavlovia","0","3","0.0-0.0","ADV_EN_22","PRE","","","","","","","","","","",""
"fullscreen","1","2893","0.0-1.0","ADV_EN_22","PRE","true","","","","","","","","","",""
"survey-html-form","2","15493","0.0-2.0","ADV_EN_22","PRE","","11927.099999999977","{""userID"":""ADV_EN_22"",""type"":""PRE""}","userID","","","","","","",""
"html-keyboard-response","3","17780","0.0-3.0","ADV_EN_22","PRE","","1615.4000000000233","","","<p>Welcome to this task.</p>			<p>You will see a set of numbers, presented one at a time.<br/>			You need to pay attention to the numbers in the list and their order.<br/>			The list will end abruptly at any time. You will be told to enter the LAST X number of digits.</p>			<p>[Press SPACE to practice]</p>","32","","","","",""
"html-keyboard-response","4","18593","0.0-4.0","ADV_EN_22","PRE","","null","","fixation cross","<div class='stimulus'>+</div>","null","","","","",""
"html-keyboard-response","5","20396","0.0-5.0","ADV_EN_22","PRE","","null","","practice display digit","<div class=""stimulus"">9</div>","null","9,8,3","","","",""
"html-keyboard-response","6","22197","0.0-6.0","ADV_EN_22","PRE","","null","","practice display digit","<div class=""stimulus"">8</div>","null","9,8,3","","","",""
"html-keyboard-response","7","23999","0.0-7.0","ADV_EN_22","PRE","","null","","practice display digit","<div class=""stimulus"">3</div>","null","9,8,3","","","",""
"survey-html-form-autofocus","8","29621","0.0-8.0","ADV_EN_22","PRE","","4956.300000000047","{""recall"":""38""}","practice recall","","","983","","83","",""
"html-keyboard-response","9","37292","0.0-9.0","ADV_EN_22","PRE","","6994.79999999993","","","<p>The sequence was 983					and you input 38.<br/>					<span class='incorrect'>You should have written 83.</span></p>						<p>Press SPACE to continue</p>","32","","","","",""
"html-keyboard-response","10","38116","0.0-10.0","ADV_EN_22","PRE","","null","","fixation cross","<div class='stimulus'>+</div>","null","","","","",""
"html-keyboard-response","11","39908","0.0-11.0","ADV_EN_22","PRE","","null","","practice display digit","<div class=""stimulus"">4</div>","null","4,8,2,1,9","","","",""
"html-keyboard-response","12","41706","0.0-12.0","ADV_EN_22","PRE","","null","","practice display digit","<div class=""stimulus"">8</div>","null","4,8,2,1,9","","","",""
"html-keyboard-response","13","43504","0.0-13.0","ADV_EN_22","PRE","","null","","practice display digit","<div class=""stimulus"">2</div>","null","4,8,2,1,9","","","",""
"html-keyboard-response","14","45303","0.0-14.0","ADV_EN_22","PRE","","null","","practice display digit","<div class=""stimulus"">1</div>","null","4,8,2,1,9","","","",""
"html-keyboard-response","15","47092","0.0-15.0","ADV_EN_22","PRE","","null","","practice display digit","<div class=""stimulus"">9</div>","null","4,8,2,1,9","","","",""
"survey-html-form-autofocus","16","54333","0.0-16.0","ADV_EN_22","PRE","","6564.599999999977","{""recall"":""219""}","practice recall","","","48219","","219","",""
"html-keyboard-response","17","65779","0.0-17.0","ADV_EN_22","PRE","","10781.599999999977","","","<span class='correct'>Perfect!</span><br/>Press SPACE to continue.","32","","","","",""
"html-keyboard-response","18","66593","0.0-18.0","ADV_EN_22","PRE","","null","","fixation cross","<div class='stimulus'>+</div>","null","","","","",""
"html-keyboard-response","19","68404","0.0-19.0","ADV_EN_22","PRE","","null","","practice display digit","<div class=""stimulus"">5</div>","null","5,7,1,9,4,2,3,6","","","",""
"html-keyboard-response","20","70196","0.0-20.0","ADV_EN_22","PRE","","null","","practice display digit","<div class=""stimulus"">7</div>","null","5,7,1,9,4,2,3,6","","","",""
"html-keyboard-response","21","72011","0.0-21.0","ADV_EN_22","PRE","","null","","practice display digit","<div class=""stimulus"">1</div>","null","5,7,1,9,4,2,3,6","","","",""
"html-keyboard-response","22","73808","0.0-22.0","ADV_EN_22","PRE","","null","","practice display digit","<div class=""stimulus"">9</div>","null","5,7,1,9,4,2,3,6","","","",""
"html-keyboard-response","23","75599","0.0-23.0","ADV_EN_22","PRE","","null","","practice display digit","<div class=""stimulus"">4</div>","null","5,7,1,9,4,2,3,6","","","",""
"html-keyboard-response","24","77404","0.0-24.0","ADV_EN_22","PRE","","null","","practice display digit","<div class=""stimulus"">2</div>","null","5,7,1,9,4,2,3,6","","","",""
"html-keyboard-response","25","79207","0.0-25.0","ADV_EN_22","PRE","","null","","practice display digit","<div class=""stimulus"">3</div>","null","5,7,1,9,4,2,3,6","","","",""
"html-keyboard-response","26","80998","0.0-26.0","ADV_EN_22","PRE","","null","","practice display digit","<div class=""stimulus"">6</div>","null","5,7,1,9,4,2,3,6","","","",""
"survey-html-form-autofocus","27","114868","0.0-27.0","ADV_EN_22","PRE","","33193","{""recall"":""239""}","practice recall","","","57194236","","4236","",""
"html-keyboard-response","28","117923","0.0-28.0","ADV_EN_22","PRE","","2391.5999999999767","","","<p>The sequence was 57194236					and you input 239.<br/>					<span class='incorrect'>You should have written 4236.</span></p>						<p>Press SPACE to continue</p>","32","","","","",""
"html-keyboard-response","29","123019","0.0-29.0","ADV_EN_22","PRE","","5084.400000000023","","","<p>That was the practice section.<br/>			<p>Now goes the official part of the task.<br/>			You won't be given any feedback on your performance.</p>			<p>R U ready?</p>			<p>[Press Y to begin]</p>","89","","","","",""
"html-keyboard-response","30","124495","0.0-30.0","ADV_EN_22","PRE","","null","","fixation cross","<div class='stimulus'>+</div>","null","","","","",""
"html-keyboard-response","31","126298","0.0-31.0","ADV_EN_22","PRE","","null","","display digit","<div class=""stimulus"">1</div>","null","1,3","","","1",""
"html-keyboard-response","32","128107","0.0-32.0","ADV_EN_22","PRE","","null","","display digit","<div class=""stimulus"">3</div>","null","1,3","","","3",""
"survey-html-form-autofocus","33","132564","0.0-33.0","ADV_EN_22","PRE","","3780.29999999993","{""recall"":""3""}","recall","","","13","3","3","","true"
"html-keyboard-response","34","134035","0.0-34.0","ADV_EN_22","PRE","","null","","fixation cross","<div class='stimulus'>+</div>","null","","","","",""
"html-keyboard-response","35","135843","0.0-35.0","ADV_EN_22","PRE","","null","","display digit","<div class=""stimulus"">0</div>","null","0,6,2,7,1,0,5,1,7,0,4,1","","","0",""
"html-keyboard-response","36","137646","0.0-36.0","ADV_EN_22","PRE","","null","","display digit","<div class=""stimulus"">6</div>","null","0,6,2,7,1,0,5,1,7,0,4,1","","","6",""
"html-keyboard-response","37","139452","0.0-37.0","ADV_EN_22","PRE","","null","","display digit","<div class=""stimulus"">2</div>","null","0,6,2,7,1,0,5,1,7,0,4,1","","","2",""
"html-keyboard-response","38","141259","0.0-38.0","ADV_EN_22","PRE","","null","","display digit","<div class=""stimulus"">7</div>","null","0,6,2,7,1,0,5,1,7,0,4,1","","","7",""
"html-keyboard-response","39","143062","0.0-39.0","ADV_EN_22","PRE","","null","","display digit","<div class=""stimulus"">1</div>","null","0,6,2,7,1,0,5,1,7,0,4,1","","","1",""
"html-keyboard-response","40","144855","0.0-40.0","ADV_EN_22","PRE","","null","","display digit","<div class=""stimulus"">0</div>","null","0,6,2,7,1,0,5,1,7,0,4,1","","","0",""
"html-keyboard-response","41","146660","0.0-41.0","ADV_EN_22","PRE","","null","","display digit","<div class=""stimulus"">5</div>","null","0,6,2,7,1,0,5,1,7,0,4,1","","","5",""
"html-keyboard-response","42","148475","0.0-42.0","ADV_EN_22","PRE","","null","","display digit","<div class=""stimulus"">1</div>","null","0,6,2,7,1,0,5,1,7,0,4,1","","","1",""
"html-keyboard-response","43","150289","0.0-43.0","ADV_EN_22","PRE","","null","","display digit","<div class=""stimulus"">7</div>","null","0,6,2,7,1,0,5,1,7,0,4,1","","","7",""
"html-keyboard-response","44","152080","0.0-44.0","ADV_EN_22","PRE","","null","","display digit","<div class=""stimulus"">0</div>","null","0,6,2,7,1,0,5,1,7,0,4,1","","","0",""
"html-keyboard-response","45","153876","0.0-45.0","ADV_EN_22","PRE","","null","","display digit","<div class=""stimulus"">4</div>","null","0,6,2,7,1,0,5,1,7,0,4,1","","","4",""
"html-keyboard-response","46","155669","0.0-46.0","ADV_EN_22","PRE","","null","","display digit","<div class=""stimulus"">1</div>","null","0,6,2,7,1,0,5,1,7,0,4,1","","","1",""
"survey-html-form-autofocus","47","159340","0.0-47.0","ADV_EN_22","PRE","","2995.9000000000233","{""recall"":""1""}","recall","","","062710517041","1","1","","true"
"html-keyboard-response","48","160808","0.0-48.0-0.0","ADV_EN_22","PRE","","null","","fixation cross","<div class='stimulus'>+</div>","null","","","","",""
"html-keyboard-response","49","162624","0.0-48.0-1.0","ADV_EN_22","PRE","","null","","display digit","<div class=""stimulus"">4</div>","null","4,7,2,4,9","","","4",""
"html-keyboard-response","50","164435","0.0-48.0-2.0","ADV_EN_22","PRE","","null","","display digit","<div class=""stimulus"">7</div>","null","4,7,2,4,9","","","7",""
"html-keyboard-response","51","166245","0.0-48.0-3.0","ADV_EN_22","PRE","","null","","display digit","<div class=""stimulus"">2</div>","null","4,7,2,4,9","","","2",""
"html-keyboard-response","52","168050","0.0-48.0-4.0","ADV_EN_22","PRE","","null","","display digit","<div class=""stimulus"">4</div>","null","4,7,2,4,9","","","4",""
"html-keyboard-response","53","169854","0.0-48.0-5.0","ADV_EN_22","PRE","","null","","display digit","<div class=""stimulus"">9</div>","null","4,7,2,4,9","","","9",""
"survey-html-form-autofocus","54","177092","0.0-48.0-6.0","ADV_EN_22","PRE","","6563.300000000047","{""recall"":""49""}","recall","","","47249","49","49","","true"
"html-keyboard-response","55","178566","0.0-48.0-7.0","ADV_EN_22","PRE","","null","","fixation cross","<div class='stimulus'>+</div>","null","","","","",""
"html-keyboard-response","56","180364","0.0-48.0-8.0","ADV_EN_22","PRE","","null","","display digit","<div class=""stimulus"">3</div>","null","3,1,5,6,7,9,4,6,9,3,2","","","3",""
"html-keyboard-response","57","182177","0.0-48.0-9.0","ADV_EN_22","PRE","","null","","display digit","<div class=""stimulus"">1</div>","null","3,1,5,6,7,9,4,6,9,3,2","","","1",""
"html-keyboard-response","58","183972","0.0-48.0-10.0","ADV_EN_22","PRE","","null","","display digit","<div class=""stimulus"">5</div>","null","3,1,5,6,7,9,4,6,9,3,2","","","5",""
"html-keyboard-response","59","185773","0.0-48.0-11.0","ADV_EN_22","PRE","","null","","display digit","<div class=""stimulus"">6</div>","null","3,1,5,6,7,9,4,6,9,3,2","","","6",""
"html-keyboard-response","60","187565","0.0-48.0-12.0","ADV_EN_22","PRE","","null","","display digit","<div class=""stimulus"">7</div>","null","3,1,5,6,7,9,4,6,9,3,2","","","7",""
"html-keyboard-response","61","189361","0.0-48.0-13.0","ADV_EN_22","PRE","","null","","display digit","<div class=""stimulus"">9</div>","null","3,1,5,6,7,9,4,6,9,3,2","","","9",""
"html-keyboard-response","62","191158","0.0-48.0-14.0","ADV_EN_22","PRE","","null","","display digit","<div class=""stimulus"">4</div>","null","3,1,5,6,7,9,4,6,9,3,2","","","4",""
"html-keyboard-response","63","192962","0.0-48.0-15.0","ADV_EN_22","PRE","","null","","display digit","<div class=""stimulus"">6</div>","null","3,1,5,6,7,9,4,6,9,3,2","","","6",""
"html-keyboard-response","64","194757","0.0-48.0-16.0","ADV_EN_22","PRE","","null","","display digit","<div class=""stimulus"">9</div>","null","3,1,5,6,7,9,4,6,9,3,2","","","9",""
"html-keyboard-response","65","196558","0.0-48.0-17.0","ADV_EN_22","PRE","","null","","display digit","<div class=""stimulus"">3</div>","null","3,1,5,6,7,9,4,6,9,3,2","","","3",""
"html-keyboard-response","66","198369","0.0-48.0-18.0","ADV_EN_22","PRE","","null","","display digit","<div class=""stimulus"">2</div>","null","3,1,5,6,7,9,4,6,9,3,2","","","2",""
"survey-html-form-autofocus","67","204828","0.0-48.0-19.0","ADV_EN_22","PRE","","5784.699999999953","{""recall"":""32""}","recall","","","31567946932","32","32","","true"
"html-keyboard-response","68","206295","0.0-48.0-20.0-0.0","ADV_EN_22","PRE","","null","","fixation cross","<div class='stimulus'>+</div>","null","","","","",""
"html-keyboard-response","69","208108","0.0-48.0-20.0-1.0","ADV_EN_22","PRE","","null","","display digit","<div class=""stimulus"">8</div>","null","8,1,9,6,1","","","8",""
"html-keyboard-response","70","209900","0.0-48.0-20.0-2.0","ADV_EN_22","PRE","","null","","display digit","<div class=""stimulus"">1</div>","null","8,1,9,6,1","","","1",""
"html-keyboard-response","71","211696","0.0-48.0-20.0-3.0","ADV_EN_22","PRE","","null","","display digit","<div class=""stimulus"">9</div>","null","8,1,9,6,1","","","9",""
"html-keyboard-response","72","213496","0.0-48.0-20.0-4.0","ADV_EN_22","PRE","","null","","display digit","<div class=""stimulus"">6</div>","null","8,1,9,6,1","","","6",""
"html-keyboard-response","73","215311","0.0-48.0-20.0-5.0","ADV_EN_22","PRE","","null","","display digit","<div class=""stimulus"">1</div>","null","8,1,9,6,1","","","1",""
"survey-html-form-autofocus","74","225147","0.0-48.0-20.0-6.0","ADV_EN_22","PRE","","9173.400000000023","{""recall"":""961""}","recall","","","81961","961","961","","true"
"html-keyboard-response","75","226621","0.0-48.0-20.0-7.0","ADV_EN_22","PRE","","null","","fixation cross","<div class='stimulus'>+</div>","null","","","","",""
"html-keyboard-response","76","228430","0.0-48.0-20.0-8.0","ADV_EN_22","PRE","","null","","display digit","<div class=""stimulus"">1</div>","null","1,7,0,2,4,7,6,1,5,2,7","","","1",""
"html-keyboard-response","77","230236","0.0-48.0-20.0-9.0","ADV_EN_22","PRE","","null","","display digit","<div class=""stimulus"">7</div>","null","1,7,0,2,4,7,6,1,5,2,7","","","7",""
"html-keyboard-response","78","232029","0.0-48.0-20.0-10.0","ADV_EN_22","PRE","","null","","display digit","<div class=""stimulus"">0</div>","null","1,7,0,2,4,7,6,1,5,2,7","","","0",""
"html-keyboard-response","79","233844","0.0-48.0-20.0-11.0","ADV_EN_22","PRE","","null","","display digit","<div class=""stimulus"">2</div>","null","1,7,0,2,4,7,6,1,5,2,7","","","2",""
"html-keyboard-response","80","235647","0.0-48.0-20.0-12.0","ADV_EN_22","PRE","","null","","display digit","<div class=""stimulus"">4</div>","null","1,7,0,2,4,7,6,1,5,2,7","","","4",""
"html-keyboard-response","81","237455","0.0-48.0-20.0-13.0","ADV_EN_22","PRE","","null","","display digit","<div class=""stimulus"">7</div>","null","1,7,0,2,4,7,6,1,5,2,7","","","7",""
"html-keyboard-response","82","239266","0.0-48.0-20.0-14.0","ADV_EN_22","PRE","","null","","display digit","<div class=""stimulus"">6</div>","null","1,7,0,2,4,7,6,1,5,2,7","","","6",""
"html-keyboard-response","83","241076","0.0-48.0-20.0-15.0","ADV_EN_22","PRE","","null","","display digit","<div class=""stimulus"">1</div>","null","1,7,0,2,4,7,6,1,5,2,7","","","1",""
"html-keyboard-response","84","242873","0.0-48.0-20.0-16.0","ADV_EN_22","PRE","","null","","display digit","<div class=""stimulus"">5</div>","null","1,7,0,2,4,7,6,1,5,2,7","","","5",""
"html-keyboard-response","85","244680","0.0-48.0-20.0-17.0","ADV_EN_22","PRE","","null","","display digit","<div class=""stimulus"">2</div>","null","1,7,0,2,4,7,6,1,5,2,7","","","2",""
"html-keyboard-response","86","246484","0.0-48.0-20.0-18.0","ADV_EN_22","PRE","","null","","display digit","<div class=""stimulus"">7</div>","null","1,7,0,2,4,7,6,1,5,2,7","","","7",""
"survey-html-form-autofocus","87","251444","0.0-48.0-20.0-19.0","ADV_EN_22","PRE","","4297.899999999907","{""recall"":""527""}","recall","","","17024761527","527","527","","true"
"html-keyboard-response","88","252921","0.0-48.0-20.0-20.0-0.0","ADV_EN_22","PRE","","null","","fixation cross","<div class='stimulus'>+</div>","null","","","","",""
"html-keyboard-response","89","254716","0.0-48.0-20.0-20.0-1.0","ADV_EN_22","PRE","","null","","display digit","<div class=""stimulus"">3</div>","null","3,4,0,4","","","3",""
"html-keyboard-response","90","256517","0.0-48.0-20.0-20.0-2.0","ADV_EN_22","PRE","","null","","display digit","<div class=""stimulus"">4</div>","null","3,4,0,4","","","4",""
"html-keyboard-response","91","258312","0.0-48.0-20.0-20.0-3.0","ADV_EN_22","PRE","","null","","display digit","<div class=""stimulus"">0</div>","null","3,4,0,4","","","0",""
"html-keyboard-response","92","260101","0.0-48.0-20.0-20.0-4.0","ADV_EN_22","PRE","","null","","display digit","<div class=""stimulus"">4</div>","null","3,4,0,4","","","4",""
"survey-html-form-autofocus","93","269388","0.0-48.0-20.0-20.0-5.0","ADV_EN_22","PRE","","8609.199999999953","{""recall"":""3404""}","recall","","","3404","3404","3404","","true"
"html-keyboard-response","94","270866","0.0-48.0-20.0-20.0-6.0","ADV_EN_22","PRE","","null","","fixation cross","<div class='stimulus'>+</div>","null","","","","",""
"html-keyboard-response","95","272670","0.0-48.0-20.0-20.0-7.0","ADV_EN_22","PRE","","null","","display digit","<div class=""stimulus"">7</div>","null","7,6,2,0,8,0,1,0,5","","","7",""
"html-keyboard-response","96","274478","0.0-48.0-20.0-20.0-8.0","ADV_EN_22","PRE","","null","","display digit","<div class=""stimulus"">6</div>","null","7,6,2,0,8,0,1,0,5","","","6",""
"html-keyboard-response","97","276290","0.0-48.0-20.0-20.0-9.0","ADV_EN_22","PRE","","null","","display digit","<div class=""stimulus"">2</div>","null","7,6,2,0,8,0,1,0,5","","","2",""
"html-keyboard-response","98","278097","0.0-48.0-20.0-20.0-10.0","ADV_EN_22","PRE","","null","","display digit","<div class=""stimulus"">0</div>","null","7,6,2,0,8,0,1,0,5","","","0",""
"html-keyboard-response","99","279906","0.0-48.0-20.0-20.0-11.0","ADV_EN_22","PRE","","null","","display digit","<div class=""stimulus"">8</div>","null","7,6,2,0,8,0,1,0,5","","","8",""
"html-keyboard-response","100","281711","0.0-48.0-20.0-20.0-12.0","ADV_EN_22","PRE","","null","","display digit","<div class=""stimulus"">0</div>","null","7,6,2,0,8,0,1,0,5","","","0",""
"html-keyboard-response","101","283519","0.0-48.0-20.0-20.0-13.0","ADV_EN_22","PRE","","null","","display digit","<div class=""stimulus"">1</div>","null","7,6,2,0,8,0,1,0,5","","","1",""
"html-keyboard-response","102","285324","0.0-48.0-20.0-20.0-14.0","ADV_EN_22","PRE","","null","","display digit","<div class=""stimulus"">0</div>","null","7,6,2,0,8,0,1,0,5","","","0",""
"html-keyboard-response","103","287129","0.0-48.0-20.0-20.0-15.0","ADV_EN_22","PRE","","null","","display digit","<div class=""stimulus"">5</div>","null","7,6,2,0,8,0,1,0,5","","","5",""
"survey-html-form-autofocus","104","315740","0.0-48.0-20.0-20.0-16.0","ADV_EN_22","PRE","","27941","{""recall"":""0280""}","recall","","","762080105","0280","0105","","false"
"html-keyboard-response","105","317203","0.0-48.0-20.0-20.0-17.0-0.0","ADV_EN_22","PRE","","null","","fixation cross","<div class='stimulus'>+</div>","null","","","","",""
"html-keyboard-response","106","318993","0.0-48.0-20.0-20.0-17.0-1.0","ADV_EN_22","PRE","","null","","display digit","<div class=""stimulus"">6</div>","null","6,2,1,8,7,8,6,9,4,6,2","","","6",""
"html-keyboard-response","107","320800","0.0-48.0-20.0-20.0-17.0-2.0","ADV_EN_22","PRE","","null","","display digit","<div class=""stimulus"">2</div>","null","6,2,1,8,7,8,6,9,4,6,2","","","2",""
"html-keyboard-response","108","322608","0.0-48.0-20.0-20.0-17.0-3.0","ADV_EN_22","PRE","","null","","display digit","<div class=""stimulus"">1</div>","null","6,2,1,8,7,8,6,9,4,6,2","","","1",""
"html-keyboard-response","109","324404","0.0-48.0-20.0-20.0-17.0-4.0","ADV_EN_22","PRE","","null","","display digit","<div class=""stimulus"">8</div>","null","6,2,1,8,7,8,6,9,4,6,2","","","8",""
"html-keyboard-response","110","326214","0.0-48.0-20.0-20.0-17.0-5.0","ADV_EN_22","PRE","","null","","display digit","<div class=""stimulus"">7</div>","null","6,2,1,8,7,8,6,9,4,6,2","","","7",""
"html-keyboard-response","111","328023","0.0-48.0-20.0-20.0-17.0-6.0","ADV_EN_22","PRE","","null","","display digit","<div class=""stimulus"">8</div>","null","6,2,1,8,7,8,6,9,4,6,2","","","8",""
"html-keyboard-response","112","329827","0.0-48.0-20.0-20.0-17.0-7.0","ADV_EN_22","PRE","","null","","display digit","<div class=""stimulus"">6</div>","null","6,2,1,8,7,8,6,9,4,6,2","","","6",""
"html-keyboard-response","113","331633","0.0-48.0-20.0-20.0-17.0-8.0","ADV_EN_22","PRE","","null","","display digit","<div class=""stimulus"">9</div>","null","6,2,1,8,7,8,6,9,4,6,2","","","9",""
"html-keyboard-response","114","333428","0.0-48.0-20.0-20.0-17.0-9.0","ADV_EN_22","PRE","","null","","display digit","<div class=""stimulus"">4</div>","null","6,2,1,8,7,8,6,9,4,6,2","","","4",""
"html-keyboard-response","115","335231","0.0-48.0-20.0-20.0-17.0-10.0","ADV_EN_22","PRE","","null","","display digit","<div class=""stimulus"">6</div>","null","6,2,1,8,7,8,6,9,4,6,2","","","6",""
"html-keyboard-response","116","337028","0.0-48.0-20.0-20.0-17.0-11.0","ADV_EN_22","PRE","","null","","display digit","<div class=""stimulus"">2</div>","null","6,2,1,8,7,8,6,9,4,6,2","","","2",""
"survey-html-form-autofocus","117","345396","0.0-48.0-20.0-20.0-17.0-12.0","ADV_EN_22","PRE","","7696","{""recall"":""7462""}","recall","","","62187869462","7462","69462","","false"
"html-keyboard-response","118","346870","0.0-48.0-20.0-20.0-17.0-13.0","ADV_EN_22","PRE","","null","","fixation cross","<div class='stimulus'>+</div>","null","","","","",""
"html-keyboard-response","119","348676","0.0-48.0-20.0-20.0-17.0-14.0","ADV_EN_22","PRE","","null","","display digit","<div class=""stimulus"">2</div>","null","2,0,6,5,2,6,8,3","","","2",""
"html-keyboard-response","120","350472","0.0-48.0-20.0-20.0-17.0-15.0","ADV_EN_22","PRE","","null","","display digit","<div class=""stimulus"">0</div>","null","2,0,6,5,2,6,8,3","","","0",""
"html-keyboard-response","121","352275","0.0-48.0-20.0-20.0-17.0-16.0","ADV_EN_22","PRE","","null","","display digit","<div class=""stimulus"">6</div>","null","2,0,6,5,2,6,8,3","","","6",""
"html-keyboard-response","122","354074","0.0-48.0-20.0-20.0-17.0-17.0","ADV_EN_22","PRE","","null","","display digit","<div class=""stimulus"">5</div>","null","2,0,6,5,2,6,8,3","","","5",""
"html-keyboard-response","123","355879","0.0-48.0-20.0-20.0-17.0-18.0","ADV_EN_22","PRE","","null","","display digit","<div class=""stimulus"">2</div>","null","2,0,6,5,2,6,8,3","","","2",""
"html-keyboard-response","124","357687","0.0-48.0-20.0-20.0-17.0-19.0","ADV_EN_22","PRE","","null","","display digit","<div class=""stimulus"">6</div>","null","2,0,6,5,2,6,8,3","","","6",""
"html-keyboard-response","125","359502","0.0-48.0-20.0-20.0-17.0-20.0","ADV_EN_22","PRE","","null","","display digit","<div class=""stimulus"">8</div>","null","2,0,6,5,2,6,8,3","","","8",""
"html-keyboard-response","126","361313","0.0-48.0-20.0-20.0-17.0-21.0","ADV_EN_22","PRE","","null","","display digit","<div class=""stimulus"">3</div>","null","2,0,6,5,2,6,8,3","","","3",""
"survey-html-form-autofocus","127","381316","0.0-48.0-20.0-20.0-17.0-22.0","ADV_EN_22","PRE","","19329.199999999953","{""recall"":""56082""}","recall","","","20652683","56082","52683","","false"
"html-keyboard-response","128","386645","0.0-49.0","ADV_EN_22","PRE","","4653.800000000047","","","<p>End of the experiment.<br/>			   		You reached level 5 and your					total score is 7.</p>					<p class=""important"">PRESS SPACE TO FINISH THE EXPERIMENT.</p>","32","","","","",""
"fullscreen","129","387673","0.0-50.0","ADV_EN_22","PRE","true","","","","","","","","","",""
