"trial_type","trial_index","time_elapsed","internal_node_id","userID","sessionType","success","rt","responses","stage","stimulus","key_press","sequence","recall","sequence_last_digits","digit","correct"
"pavlovia","0","12","0.0-0.0","INC_J_BEG_013","PRE","","","","","","","","","","",""
"fullscreen","1","4931","0.0-1.0","INC_J_BEG_013","PRE","true","","","","","","","","","",""
"survey-html-form","2","23554","0.0-2.0","INC_J_BEG_013","PRE","","17957.100000000093","{""userID"":""INC_J_BEG_013"",""type"":""PRE""}","userID","","","","","","",""
"html-keyboard-response","3","40932","0.0-3.0","INC_J_BEG_013","PRE","","16711.79999999993","","","<p>Welcome to this task.</p>			<p>You will see a set of numbers, presented one at a time.<br/>			You need to pay attention to the numbers in the list and their order.<br/>			The list will end abruptly at any time. You will be told to enter the LAST X number of digits.</p>			<p>[Press SPACE to practice]</p>","32","","","","",""
"html-keyboard-response","4","41756","0.0-4.0","INC_J_BEG_013","PRE","","null","","fixation cross","<div class='stimulus'>+</div>","null","","","","",""
"html-keyboard-response","5","43546","0.0-5.0","INC_J_BEG_013","PRE","","null","","practice display digit","<div class=""stimulus"">9</div>","null","9,8,3","","","",""
"html-keyboard-response","6","45350","0.0-6.0","INC_J_BEG_013","PRE","","null","","practice display digit","<div class=""stimulus"">8</div>","null","9,8,3","","","",""
"html-keyboard-response","7","47150","0.0-7.0","INC_J_BEG_013","PRE","","null","","practice display digit","<div class=""stimulus"">3</div>","null","9,8,3","","","",""
"survey-html-form-autofocus","8","50690","0.0-8.0","INC_J_BEG_013","PRE","","2862.6999999999534","{""recall"":""83""}","practice recall","","","983","","83","",""
"html-keyboard-response","9","53626","0.0-9.0","INC_J_BEG_013","PRE","","2259.1999999999534","","","<span class='correct'>Perfect!</span><br/>Press SPACE to continue.","32","","","","",""
"html-keyboard-response","10","54443","0.0-10.0","INC_J_BEG_013","PRE","","null","","fixation cross","<div class='stimulus'>+</div>","null","","","","",""
"html-keyboard-response","11","56246","0.0-11.0","INC_J_BEG_013","PRE","","null","","practice display digit","<div class=""stimulus"">4</div>","null","4,8,2,1,9","","","",""
"html-keyboard-response","12","58045","0.0-12.0","INC_J_BEG_013","PRE","","null","","practice display digit","<div class=""stimulus"">8</div>","null","4,8,2,1,9","","","",""
"html-keyboard-response","13","59852","0.0-13.0","INC_J_BEG_013","PRE","","null","","practice display digit","<div class=""stimulus"">2</div>","null","4,8,2,1,9","","","",""
"html-keyboard-response","14","61659","0.0-14.0","INC_J_BEG_013","PRE","","null","","practice display digit","<div class=""stimulus"">1</div>","null","4,8,2,1,9","","","",""
"html-keyboard-response","15","63473","0.0-15.0","INC_J_BEG_013","PRE","","null","","practice display digit","<div class=""stimulus"">9</div>","null","4,8,2,1,9","","","",""
"survey-html-form-autofocus","16","79217","0.0-16.0","INC_J_BEG_013","PRE","","15065.70000000007","{""recall"":""129""}","practice recall","","","48219","","219","",""
"html-keyboard-response","17","88290","0.0-17.0","INC_J_BEG_013","PRE","","8408.599999999977","","","<p>The sequence was 48219					and you input 129.<br/>					<span class='incorrect'>You should have written 219.</span></p>						<p>Press SPACE to continue</p>","32","","","","",""
"html-keyboard-response","18","89117","0.0-18.0","INC_J_BEG_013","PRE","","null","","fixation cross","<div class='stimulus'>+</div>","null","","","","",""
"html-keyboard-response","19","90924","0.0-19.0","INC_J_BEG_013","PRE","","null","","practice display digit","<div class=""stimulus"">5</div>","null","5,7,1,9,4,2,3,6","","","",""
"html-keyboard-response","20","92724","0.0-20.0","INC_J_BEG_013","PRE","","null","","practice display digit","<div class=""stimulus"">7</div>","null","5,7,1,9,4,2,3,6","","","",""
"html-keyboard-response","21","94523","0.0-21.0","INC_J_BEG_013","PRE","","null","","practice display digit","<div class=""stimulus"">1</div>","null","5,7,1,9,4,2,3,6","","","",""
"html-keyboard-response","22","96325","0.0-22.0","INC_J_BEG_013","PRE","","null","","practice display digit","<div class=""stimulus"">9</div>","null","5,7,1,9,4,2,3,6","","","",""
"html-keyboard-response","23","98119","0.0-23.0","INC_J_BEG_013","PRE","","null","","practice display digit","<div class=""stimulus"">4</div>","null","5,7,1,9,4,2,3,6","","","",""
"html-keyboard-response","24","99923","0.0-24.0","INC_J_BEG_013","PRE","","null","","practice display digit","<div class=""stimulus"">2</div>","null","5,7,1,9,4,2,3,6","","","",""
"html-keyboard-response","25","101732","0.0-25.0","INC_J_BEG_013","PRE","","null","","practice display digit","<div class=""stimulus"">3</div>","null","5,7,1,9,4,2,3,6","","","",""
"html-keyboard-response","26","103536","0.0-26.0","INC_J_BEG_013","PRE","","null","","practice display digit","<div class=""stimulus"">6</div>","null","5,7,1,9,4,2,3,6","","","",""
"survey-html-form-autofocus","27","118593","0.0-27.0","INC_J_BEG_013","PRE","","14390.899999999907","{""recall"":""4369""}","practice recall","","","57194236","","4236","",""
"html-keyboard-response","28","129723","0.0-28.0","INC_J_BEG_013","PRE","","10464.699999999953","","","<p>The sequence was 57194236					and you input 4369.<br/>					<span class='incorrect'>You should have written 4236.</span></p>						<p>Press SPACE to continue</p>","32","","","","",""
"html-keyboard-response","29","138154","0.0-29.0","INC_J_BEG_013","PRE","","8419.600000000093","","","<p>That was the practice section.<br/>			<p>Now goes the official part of the task.<br/>			You won't be given any feedback on your performance.</p>			<p>R U ready?</p>			<p>[Press Y to begin]</p>","89","","","","",""
"html-keyboard-response","30","139637","0.0-30.0","INC_J_BEG_013","PRE","","null","","fixation cross","<div class='stimulus'>+</div>","null","","","","",""
"html-keyboard-response","31","141435","0.0-31.0","INC_J_BEG_013","PRE","","null","","display digit","<div class=""stimulus"">4</div>","null","4,1,8,6,3,6,0,8,5,0,9","","","4",""
"html-keyboard-response","32","143242","0.0-32.0","INC_J_BEG_013","PRE","","null","","display digit","<div class=""stimulus"">1</div>","null","4,1,8,6,3,6,0,8,5,0,9","","","1",""
"html-keyboard-response","33","145043","0.0-33.0","INC_J_BEG_013","PRE","","null","","display digit","<div class=""stimulus"">8</div>","null","4,1,8,6,3,6,0,8,5,0,9","","","8",""
"html-keyboard-response","34","146849","0.0-34.0","INC_J_BEG_013","PRE","","null","","display digit","<div class=""stimulus"">6</div>","null","4,1,8,6,3,6,0,8,5,0,9","","","6",""
"html-keyboard-response","35","148648","0.0-35.0","INC_J_BEG_013","PRE","","null","","display digit","<div class=""stimulus"">3</div>","null","4,1,8,6,3,6,0,8,5,0,9","","","3",""
"html-keyboard-response","36","150448","0.0-36.0","INC_J_BEG_013","PRE","","null","","display digit","<div class=""stimulus"">6</div>","null","4,1,8,6,3,6,0,8,5,0,9","","","6",""
"html-keyboard-response","37","152250","0.0-37.0","INC_J_BEG_013","PRE","","null","","display digit","<div class=""stimulus"">0</div>","null","4,1,8,6,3,6,0,8,5,0,9","","","0",""
"html-keyboard-response","38","154060","0.0-38.0","INC_J_BEG_013","PRE","","null","","display digit","<div class=""stimulus"">8</div>","null","4,1,8,6,3,6,0,8,5,0,9","","","8",""
"html-keyboard-response","39","155867","0.0-39.0","INC_J_BEG_013","PRE","","null","","display digit","<div class=""stimulus"">5</div>","null","4,1,8,6,3,6,0,8,5,0,9","","","5",""
"html-keyboard-response","40","157676","0.0-40.0","INC_J_BEG_013","PRE","","null","","display digit","<div class=""stimulus"">0</div>","null","4,1,8,6,3,6,0,8,5,0,9","","","0",""
"html-keyboard-response","41","159484","0.0-41.0","INC_J_BEG_013","PRE","","null","","display digit","<div class=""stimulus"">9</div>","null","4,1,8,6,3,6,0,8,5,0,9","","","9",""
"survey-html-form-autofocus","42","162282","0.0-42.0","INC_J_BEG_013","PRE","","2128.29999999993","{""recall"":""0""}","recall","","","41863608509","0","9","","false"
"html-keyboard-response","43","163763","0.0-43.0","INC_J_BEG_013","PRE","","null","","fixation cross","<div class='stimulus'>+</div>","null","","","","",""
"html-keyboard-response","44","165559","0.0-44.0","INC_J_BEG_013","PRE","","null","","display digit","<div class=""stimulus"">0</div>","null","0,5,8,0,3,9,2,4,9,5","","","0",""
"html-keyboard-response","45","167357","0.0-45.0","INC_J_BEG_013","PRE","","null","","display digit","<div class=""stimulus"">5</div>","null","0,5,8,0,3,9,2,4,9,5","","","5",""
"html-keyboard-response","46","169166","0.0-46.0","INC_J_BEG_013","PRE","","null","","display digit","<div class=""stimulus"">8</div>","null","0,5,8,0,3,9,2,4,9,5","","","8",""
"html-keyboard-response","47","170974","0.0-47.0","INC_J_BEG_013","PRE","","null","","display digit","<div class=""stimulus"">0</div>","null","0,5,8,0,3,9,2,4,9,5","","","0",""
"html-keyboard-response","48","172764","0.0-48.0","INC_J_BEG_013","PRE","","null","","display digit","<div class=""stimulus"">3</div>","null","0,5,8,0,3,9,2,4,9,5","","","3",""
"html-keyboard-response","49","174564","0.0-49.0","INC_J_BEG_013","PRE","","null","","display digit","<div class=""stimulus"">9</div>","null","0,5,8,0,3,9,2,4,9,5","","","9",""
"html-keyboard-response","50","176361","0.0-50.0","INC_J_BEG_013","PRE","","null","","display digit","<div class=""stimulus"">2</div>","null","0,5,8,0,3,9,2,4,9,5","","","2",""
"html-keyboard-response","51","178154","0.0-51.0","INC_J_BEG_013","PRE","","null","","display digit","<div class=""stimulus"">4</div>","null","0,5,8,0,3,9,2,4,9,5","","","4",""
"html-keyboard-response","52","179958","0.0-52.0","INC_J_BEG_013","PRE","","null","","display digit","<div class=""stimulus"">9</div>","null","0,5,8,0,3,9,2,4,9,5","","","9",""
"html-keyboard-response","53","181765","0.0-53.0","INC_J_BEG_013","PRE","","null","","display digit","<div class=""stimulus"">5</div>","null","0,5,8,0,3,9,2,4,9,5","","","5",""
"survey-html-form-autofocus","54","184137","0.0-54.0","INC_J_BEG_013","PRE","","1702.7999999999302","{""recall"":""5""}","recall","","","0580392495","5","5","","true"
"html-keyboard-response","55","185619","0.0-55.0-0.0","INC_J_BEG_013","PRE","","null","","fixation cross","<div class='stimulus'>+</div>","null","","","","",""
"html-keyboard-response","56","187423","0.0-55.0-1.0","INC_J_BEG_013","PRE","","null","","display digit","<div class=""stimulus"">5</div>","null","5,6,5,3,5","","","5",""
"html-keyboard-response","57","189228","0.0-55.0-2.0","INC_J_BEG_013","PRE","","null","","display digit","<div class=""stimulus"">6</div>","null","5,6,5,3,5","","","6",""
"html-keyboard-response","58","191018","0.0-55.0-3.0","INC_J_BEG_013","PRE","","null","","display digit","<div class=""stimulus"">5</div>","null","5,6,5,3,5","","","5",""
"html-keyboard-response","59","192830","0.0-55.0-4.0","INC_J_BEG_013","PRE","","null","","display digit","<div class=""stimulus"">3</div>","null","5,6,5,3,5","","","3",""
"html-keyboard-response","60","194620","0.0-55.0-5.0","INC_J_BEG_013","PRE","","null","","display digit","<div class=""stimulus"">5</div>","null","5,6,5,3,5","","","5",""
"survey-html-form-autofocus","61","197761","0.0-55.0-6.0","INC_J_BEG_013","PRE","","2470.6999999999534","{""recall"":""35""}","recall","","","56535","35","35","","true"
"html-keyboard-response","62","199248","0.0-55.0-7.0","INC_J_BEG_013","PRE","","null","","fixation cross","<div class='stimulus'>+</div>","null","","","","",""
"html-keyboard-response","63","201047","0.0-55.0-8.0","INC_J_BEG_013","PRE","","null","","display digit","<div class=""stimulus"">6</div>","null","6,7,6,3,9,1,9,4,6,7,9","","","6",""
"html-keyboard-response","64","202850","0.0-55.0-9.0","INC_J_BEG_013","PRE","","null","","display digit","<div class=""stimulus"">7</div>","null","6,7,6,3,9,1,9,4,6,7,9","","","7",""
"html-keyboard-response","65","204641","0.0-55.0-10.0","INC_J_BEG_013","PRE","","null","","display digit","<div class=""stimulus"">6</div>","null","6,7,6,3,9,1,9,4,6,7,9","","","6",""
"html-keyboard-response","66","206442","0.0-55.0-11.0","INC_J_BEG_013","PRE","","null","","display digit","<div class=""stimulus"">3</div>","null","6,7,6,3,9,1,9,4,6,7,9","","","3",""
"html-keyboard-response","67","208236","0.0-55.0-12.0","INC_J_BEG_013","PRE","","null","","display digit","<div class=""stimulus"">9</div>","null","6,7,6,3,9,1,9,4,6,7,9","","","9",""
"html-keyboard-response","68","210047","0.0-55.0-13.0","INC_J_BEG_013","PRE","","null","","display digit","<div class=""stimulus"">1</div>","null","6,7,6,3,9,1,9,4,6,7,9","","","1",""
"html-keyboard-response","69","211851","0.0-55.0-14.0","INC_J_BEG_013","PRE","","null","","display digit","<div class=""stimulus"">9</div>","null","6,7,6,3,9,1,9,4,6,7,9","","","9",""
"html-keyboard-response","70","213662","0.0-55.0-15.0","INC_J_BEG_013","PRE","","null","","display digit","<div class=""stimulus"">4</div>","null","6,7,6,3,9,1,9,4,6,7,9","","","4",""
"html-keyboard-response","71","215462","0.0-55.0-16.0","INC_J_BEG_013","PRE","","null","","display digit","<div class=""stimulus"">6</div>","null","6,7,6,3,9,1,9,4,6,7,9","","","6",""
"html-keyboard-response","72","217261","0.0-55.0-17.0","INC_J_BEG_013","PRE","","null","","display digit","<div class=""stimulus"">7</div>","null","6,7,6,3,9,1,9,4,6,7,9","","","7",""
"html-keyboard-response","73","219062","0.0-55.0-18.0","INC_J_BEG_013","PRE","","null","","display digit","<div class=""stimulus"">9</div>","null","6,7,6,3,9,1,9,4,6,7,9","","","9",""
"survey-html-form-autofocus","74","222905","0.0-55.0-19.0","INC_J_BEG_013","PRE","","3173.9000000000233","{""recall"":""79""}","recall","","","67639194679","79","79","","true"
"html-keyboard-response","75","224396","0.0-55.0-20.0-0.0","INC_J_BEG_013","PRE","","null","","fixation cross","<div class='stimulus'>+</div>","null","","","","",""
"html-keyboard-response","76","226206","0.0-55.0-20.0-1.0","INC_J_BEG_013","PRE","","null","","display digit","<div class=""stimulus"">2</div>","null","2,9,3,7,1,0,5","","","2",""
"html-keyboard-response","77","228002","0.0-55.0-20.0-2.0","INC_J_BEG_013","PRE","","null","","display digit","<div class=""stimulus"">9</div>","null","2,9,3,7,1,0,5","","","9",""
"html-keyboard-response","78","229806","0.0-55.0-20.0-3.0","INC_J_BEG_013","PRE","","null","","display digit","<div class=""stimulus"">3</div>","null","2,9,3,7,1,0,5","","","3",""
"html-keyboard-response","79","231616","0.0-55.0-20.0-4.0","INC_J_BEG_013","PRE","","null","","display digit","<div class=""stimulus"">7</div>","null","2,9,3,7,1,0,5","","","7",""
"html-keyboard-response","80","233413","0.0-55.0-20.0-5.0","INC_J_BEG_013","PRE","","null","","display digit","<div class=""stimulus"">1</div>","null","2,9,3,7,1,0,5","","","1",""
"html-keyboard-response","81","235211","0.0-55.0-20.0-6.0","INC_J_BEG_013","PRE","","null","","display digit","<div class=""stimulus"">0</div>","null","2,9,3,7,1,0,5","","","0",""
"html-keyboard-response","82","237001","0.0-55.0-20.0-7.0","INC_J_BEG_013","PRE","","null","","display digit","<div class=""stimulus"">5</div>","null","2,9,3,7,1,0,5","","","5",""
"survey-html-form-autofocus","83","242297","0.0-55.0-20.0-8.0","INC_J_BEG_013","PRE","","4620.5","{""recall"":""305""}","recall","","","2937105","305","105","","false"
"html-keyboard-response","84","243778","0.0-55.0-20.0-9.0","INC_J_BEG_013","PRE","","null","","fixation cross","<div class='stimulus'>+</div>","null","","","","",""
"html-keyboard-response","85","245570","0.0-55.0-20.0-10.0","INC_J_BEG_013","PRE","","null","","display digit","<div class=""stimulus"">4</div>","null","4,5,8,2,5,1,5,2","","","4",""
"html-keyboard-response","86","247373","0.0-55.0-20.0-11.0","INC_J_BEG_013","PRE","","null","","display digit","<div class=""stimulus"">5</div>","null","4,5,8,2,5,1,5,2","","","5",""
"html-keyboard-response","87","249176","0.0-55.0-20.0-12.0","INC_J_BEG_013","PRE","","null","","display digit","<div class=""stimulus"">8</div>","null","4,5,8,2,5,1,5,2","","","8",""
"html-keyboard-response","88","250977","0.0-55.0-20.0-13.0","INC_J_BEG_013","PRE","","null","","display digit","<div class=""stimulus"">2</div>","null","4,5,8,2,5,1,5,2","","","2",""
"html-keyboard-response","89","252777","0.0-55.0-20.0-14.0","INC_J_BEG_013","PRE","","null","","display digit","<div class=""stimulus"">5</div>","null","4,5,8,2,5,1,5,2","","","5",""
"html-keyboard-response","90","254576","0.0-55.0-20.0-15.0","INC_J_BEG_013","PRE","","null","","display digit","<div class=""stimulus"">1</div>","null","4,5,8,2,5,1,5,2","","","1",""
"html-keyboard-response","91","256384","0.0-55.0-20.0-16.0","INC_J_BEG_013","PRE","","null","","display digit","<div class=""stimulus"">5</div>","null","4,5,8,2,5,1,5,2","","","5",""
"html-keyboard-response","92","258186","0.0-55.0-20.0-17.0","INC_J_BEG_013","PRE","","null","","display digit","<div class=""stimulus"">2</div>","null","4,5,8,2,5,1,5,2","","","2",""
"survey-html-form-autofocus","93","261297","0.0-55.0-20.0-18.0","INC_J_BEG_013","PRE","","2430.6999999999534","{""recall"":""152""}","recall","","","45825152","152","152","","true"
"html-keyboard-response","94","262784","0.0-55.0-20.0-19.0-0.0","INC_J_BEG_013","PRE","","null","","fixation cross","<div class='stimulus'>+</div>","null","","","","",""
"html-keyboard-response","95","264576","0.0-55.0-20.0-19.0-1.0","INC_J_BEG_013","PRE","","null","","display digit","<div class=""stimulus"">9</div>","null","9,0,2,1,8,7","","","9",""
"html-keyboard-response","96","266377","0.0-55.0-20.0-19.0-2.0","INC_J_BEG_013","PRE","","null","","display digit","<div class=""stimulus"">0</div>","null","9,0,2,1,8,7","","","0",""
"html-keyboard-response","97","268191","0.0-55.0-20.0-19.0-3.0","INC_J_BEG_013","PRE","","null","","display digit","<div class=""stimulus"">2</div>","null","9,0,2,1,8,7","","","2",""
"html-keyboard-response","98","269993","0.0-55.0-20.0-19.0-4.0","INC_J_BEG_013","PRE","","null","","display digit","<div class=""stimulus"">1</div>","null","9,0,2,1,8,7","","","1",""
"html-keyboard-response","99","271803","0.0-55.0-20.0-19.0-5.0","INC_J_BEG_013","PRE","","null","","display digit","<div class=""stimulus"">8</div>","null","9,0,2,1,8,7","","","8",""
"html-keyboard-response","100","273601","0.0-55.0-20.0-19.0-6.0","INC_J_BEG_013","PRE","","null","","display digit","<div class=""stimulus"">7</div>","null","9,0,2,1,8,7","","","7",""
"survey-html-form-autofocus","101","282305","0.0-55.0-20.0-19.0-7.0","INC_J_BEG_013","PRE","","8033.79999999993","{""recall"":""2178""}","recall","","","902187","2178","2187","","false"
"html-keyboard-response","102","283781","0.0-55.0-20.0-19.0-8.0","INC_J_BEG_013","PRE","","null","","fixation cross","<div class='stimulus'>+</div>","null","","","","",""
"html-keyboard-response","103","285579","0.0-55.0-20.0-19.0-9.0","INC_J_BEG_013","PRE","","null","","display digit","<div class=""stimulus"">6</div>","null","6,2,5,0","","","6",""
"html-keyboard-response","104","287388","0.0-55.0-20.0-19.0-10.0","INC_J_BEG_013","PRE","","null","","display digit","<div class=""stimulus"">2</div>","null","6,2,5,0","","","2",""
"html-keyboard-response","105","289196","0.0-55.0-20.0-19.0-11.0","INC_J_BEG_013","PRE","","null","","display digit","<div class=""stimulus"">5</div>","null","6,2,5,0","","","5",""
"html-keyboard-response","106","290994","0.0-55.0-20.0-19.0-12.0","INC_J_BEG_013","PRE","","null","","display digit","<div class=""stimulus"">0</div>","null","6,2,5,0","","","0",""
"survey-html-form-autofocus","107","294489","0.0-55.0-20.0-19.0-13.0","INC_J_BEG_013","PRE","","2828.1999999999534","{""recall"":""6250""}","recall","","","6250","6250","6250","","true"
"html-keyboard-response","108","295974","0.0-55.0-20.0-19.0-14.0-0.0","INC_J_BEG_013","PRE","","null","","fixation cross","<div class='stimulus'>+</div>","null","","","","",""
"html-keyboard-response","109","297778","0.0-55.0-20.0-19.0-14.0-1.0","INC_J_BEG_013","PRE","","null","","display digit","<div class=""stimulus"">0</div>","null","0,2,9,0,8,6,5,0,5","","","0",""
"html-keyboard-response","110","299589","0.0-55.0-20.0-19.0-14.0-2.0","INC_J_BEG_013","PRE","","null","","display digit","<div class=""stimulus"">2</div>","null","0,2,9,0,8,6,5,0,5","","","2",""
"html-keyboard-response","111","301400","0.0-55.0-20.0-19.0-14.0-3.0","INC_J_BEG_013","PRE","","null","","display digit","<div class=""stimulus"">9</div>","null","0,2,9,0,8,6,5,0,5","","","9",""
"html-keyboard-response","112","303208","0.0-55.0-20.0-19.0-14.0-4.0","INC_J_BEG_013","PRE","","null","","display digit","<div class=""stimulus"">0</div>","null","0,2,9,0,8,6,5,0,5","","","0",""
"html-keyboard-response","113","305007","0.0-55.0-20.0-19.0-14.0-5.0","INC_J_BEG_013","PRE","","null","","display digit","<div class=""stimulus"">8</div>","null","0,2,9,0,8,6,5,0,5","","","8",""
"html-keyboard-response","114","306812","0.0-55.0-20.0-19.0-14.0-6.0","INC_J_BEG_013","PRE","","null","","display digit","<div class=""stimulus"">6</div>","null","0,2,9,0,8,6,5,0,5","","","6",""
"html-keyboard-response","115","308607","0.0-55.0-20.0-19.0-14.0-7.0","INC_J_BEG_013","PRE","","null","","display digit","<div class=""stimulus"">5</div>","null","0,2,9,0,8,6,5,0,5","","","5",""
"html-keyboard-response","116","310412","0.0-55.0-20.0-19.0-14.0-8.0","INC_J_BEG_013","PRE","","null","","display digit","<div class=""stimulus"">0</div>","null","0,2,9,0,8,6,5,0,5","","","0",""
"html-keyboard-response","117","312221","0.0-55.0-20.0-19.0-14.0-9.0","INC_J_BEG_013","PRE","","null","","display digit","<div class=""stimulus"">5</div>","null","0,2,9,0,8,6,5,0,5","","","5",""
"survey-html-form-autofocus","118","320009","0.0-55.0-20.0-19.0-14.0-10.0","INC_J_BEG_013","PRE","","7111.20000000007","{""recall"":""08505""}","recall","","","029086505","08505","86505","","false"
"html-keyboard-response","119","321497","0.0-55.0-20.0-19.0-14.0-11.0","INC_J_BEG_013","PRE","","null","","fixation cross","<div class='stimulus'>+</div>","null","","","","",""
"html-keyboard-response","120","323302","0.0-55.0-20.0-19.0-14.0-12.0","INC_J_BEG_013","PRE","","null","","display digit","<div class=""stimulus"">1</div>","null","1,7,9,3,5,4,5,9,3,1,0","","","1",""
"html-keyboard-response","121","325093","0.0-55.0-20.0-19.0-14.0-13.0","INC_J_BEG_013","PRE","","null","","display digit","<div class=""stimulus"">7</div>","null","1,7,9,3,5,4,5,9,3,1,0","","","7",""
"html-keyboard-response","122","326907","0.0-55.0-20.0-19.0-14.0-14.0","INC_J_BEG_013","PRE","","null","","display digit","<div class=""stimulus"">9</div>","null","1,7,9,3,5,4,5,9,3,1,0","","","9",""
"html-keyboard-response","123","328709","0.0-55.0-20.0-19.0-14.0-15.0","INC_J_BEG_013","PRE","","null","","display digit","<div class=""stimulus"">3</div>","null","1,7,9,3,5,4,5,9,3,1,0","","","3",""
"html-keyboard-response","124","330522","0.0-55.0-20.0-19.0-14.0-16.0","INC_J_BEG_013","PRE","","null","","display digit","<div class=""stimulus"">5</div>","null","1,7,9,3,5,4,5,9,3,1,0","","","5",""
"html-keyboard-response","125","332318","0.0-55.0-20.0-19.0-14.0-17.0","INC_J_BEG_013","PRE","","null","","display digit","<div class=""stimulus"">4</div>","null","1,7,9,3,5,4,5,9,3,1,0","","","4",""
"html-keyboard-response","126","334120","0.0-55.0-20.0-19.0-14.0-18.0","INC_J_BEG_013","PRE","","null","","display digit","<div class=""stimulus"">5</div>","null","1,7,9,3,5,4,5,9,3,1,0","","","5",""
"html-keyboard-response","127","335922","0.0-55.0-20.0-19.0-14.0-19.0","INC_J_BEG_013","PRE","","null","","display digit","<div class=""stimulus"">9</div>","null","1,7,9,3,5,4,5,9,3,1,0","","","9",""
"html-keyboard-response","128","337724","0.0-55.0-20.0-19.0-14.0-20.0","INC_J_BEG_013","PRE","","null","","display digit","<div class=""stimulus"">3</div>","null","1,7,9,3,5,4,5,9,3,1,0","","","3",""
"html-keyboard-response","129","339517","0.0-55.0-20.0-19.0-14.0-21.0","INC_J_BEG_013","PRE","","null","","display digit","<div class=""stimulus"">1</div>","null","1,7,9,3,5,4,5,9,3,1,0","","","1",""
"html-keyboard-response","130","341319","0.0-55.0-20.0-19.0-14.0-22.0","INC_J_BEG_013","PRE","","null","","display digit","<div class=""stimulus"">0</div>","null","1,7,9,3,5,4,5,9,3,1,0","","","0",""
"survey-html-form-autofocus","131","351169","0.0-55.0-20.0-19.0-14.0-23.0","INC_J_BEG_013","PRE","","9176.699999999953","{""recall"":""35450""}","recall","","","17935459310","35450","59310","","false"
"html-keyboard-response","132","356506","0.0-56.0","INC_J_BEG_013","PRE","","4661.5","","","<p>End of the experiment.<br/>			   		You reached level 5 and your					total score is 5.</p>					<p class=""important"">PRESS SPACE TO FINISH THE EXPERIMENT.</p>","32","","","","",""
"fullscreen","133","357529","0.0-57.0","INC_J_BEG_013","PRE","true","","","","","","","","","",""
