"trial_type","trial_index","time_elapsed","internal_node_id","userID","sessionType","success","rt","responses","stage","stimulus","key_press","sequence","recall","sequence_last_digits","digit","correct"
"pavlovia","0","21","0.0-0.0","ADV_EN_28","PRE","","","","","","","","","","",""
"fullscreen","1","5260","0.0-1.0","ADV_EN_28","PRE","true","","","","","","","","","",""
"survey-html-form","2","22943","0.0-2.0","ADV_EN_28","PRE","","17006.79999999702","{""userID"":""ADV_EN_28"",""type"":""PRE""}","userID","","","","","","",""
"html-keyboard-response","3","38248","0.0-3.0","ADV_EN_28","PRE","","14625.10000000894","","","<p>Welcome to this task.</p>			<p>You will see a set of numbers, presented one at a time.<br/>			You need to pay attention to the numbers in the list and their order.<br/>			The list will end abruptly at any time. You will be told to enter the LAST X number of digits.</p>			<p>[Press SPACE to practice]</p>","32","","","","",""
"html-keyboard-response","4","39062","0.0-4.0","ADV_EN_28","PRE","","null","","fixation cross","<div class='stimulus'>+</div>","null","","","","",""
"html-keyboard-response","5","40853","0.0-5.0","ADV_EN_28","PRE","","null","","practice display digit","<div class=""stimulus"">9</div>","null","9,8,3","","","",""
"html-keyboard-response","6","42660","0.0-6.0","ADV_EN_28","PRE","","null","","practice display digit","<div class=""stimulus"">8</div>","null","9,8,3","","","",""
"html-keyboard-response","7","44462","0.0-7.0","ADV_EN_28","PRE","","null","","practice display digit","<div class=""stimulus"">3</div>","null","9,8,3","","","",""
"survey-html-form-autofocus","8","50894","0.0-8.0","ADV_EN_28","PRE","","5745.20000000298","{""recall"":""83""}","practice recall","","","983","","83","",""
"html-keyboard-response","9","52871","0.0-9.0","ADV_EN_28","PRE","","1306.9000000059605","","","<span class='correct'>Perfect!</span><br/>Press SPACE to continue.","32","","","","",""
"html-keyboard-response","10","53691","0.0-10.0","ADV_EN_28","PRE","","null","","fixation cross","<div class='stimulus'>+</div>","null","","","","",""
"html-keyboard-response","11","55500","0.0-11.0","ADV_EN_28","PRE","","null","","practice display digit","<div class=""stimulus"">4</div>","null","4,8,2,1,9","","","",""
"html-keyboard-response","12","57314","0.0-12.0","ADV_EN_28","PRE","","null","","practice display digit","<div class=""stimulus"">8</div>","null","4,8,2,1,9","","","",""
"html-keyboard-response","13","59126","0.0-13.0","ADV_EN_28","PRE","","null","","practice display digit","<div class=""stimulus"">2</div>","null","4,8,2,1,9","","","",""
"html-keyboard-response","14","60938","0.0-14.0","ADV_EN_28","PRE","","null","","practice display digit","<div class=""stimulus"">1</div>","null","4,8,2,1,9","","","",""
"html-keyboard-response","15","62751","0.0-15.0","ADV_EN_28","PRE","","null","","practice display digit","<div class=""stimulus"">9</div>","null","4,8,2,1,9","","","",""
"survey-html-form-autofocus","16","69423","0.0-16.0","ADV_EN_28","PRE","","5987","{""recall"":""219""}","practice recall","","","48219","","219","",""
"html-keyboard-response","17","87946","0.0-17.0","ADV_EN_28","PRE","","17853.10000000894","","","<span class='correct'>Perfect!</span><br/>Press SPACE to continue.","32","","","","",""
"html-keyboard-response","18","88774","0.0-18.0","ADV_EN_28","PRE","","null","","fixation cross","<div class='stimulus'>+</div>","null","","","","",""
"html-keyboard-response","19","90587","0.0-19.0","ADV_EN_28","PRE","","null","","practice display digit","<div class=""stimulus"">5</div>","null","5,7,1,9,4,2,3,6","","","",""
"html-keyboard-response","20","92398","0.0-20.0","ADV_EN_28","PRE","","null","","practice display digit","<div class=""stimulus"">7</div>","null","5,7,1,9,4,2,3,6","","","",""
"html-keyboard-response","21","94206","0.0-21.0","ADV_EN_28","PRE","","null","","practice display digit","<div class=""stimulus"">1</div>","null","5,7,1,9,4,2,3,6","","","",""
"html-keyboard-response","22","96005","0.0-22.0","ADV_EN_28","PRE","","null","","practice display digit","<div class=""stimulus"">9</div>","null","5,7,1,9,4,2,3,6","","","",""
"html-keyboard-response","23","97815","0.0-23.0","ADV_EN_28","PRE","","null","","practice display digit","<div class=""stimulus"">4</div>","null","5,7,1,9,4,2,3,6","","","",""
"html-keyboard-response","24","99629","0.0-24.0","ADV_EN_28","PRE","","null","","practice display digit","<div class=""stimulus"">2</div>","null","5,7,1,9,4,2,3,6","","","",""
"html-keyboard-response","25","101442","0.0-25.0","ADV_EN_28","PRE","","null","","practice display digit","<div class=""stimulus"">3</div>","null","5,7,1,9,4,2,3,6","","","",""
"html-keyboard-response","26","103242","0.0-26.0","ADV_EN_28","PRE","","null","","practice display digit","<div class=""stimulus"">6</div>","null","5,7,1,9,4,2,3,6","","","",""
"survey-html-form-autofocus","27","111420","0.0-27.0","ADV_EN_28","PRE","","7488.5999999940395","{""recall"":""4236""}","practice recall","","","57194236","","4236","",""
"html-keyboard-response","28","114511","0.0-28.0","ADV_EN_28","PRE","","2424.8999999910593","","","<span class='correct'>Perfect!</span><br/>Press SPACE to continue.","32","","","","",""
"html-keyboard-response","29","151329","0.0-29.0","ADV_EN_28","PRE","","36804.90000000596","","","<p>That was the practice section.<br/>			<p>Now goes the official part of the task.<br/>			You won't be given any feedback on your performance.</p>			<p>R U ready?</p>			<p>[Press Y to begin]</p>","89","","","","",""
"html-keyboard-response","30","152804","0.0-30.0","ADV_EN_28","PRE","","null","","fixation cross","<div class='stimulus'>+</div>","null","","","","",""
"html-keyboard-response","31","154605","0.0-31.0","ADV_EN_28","PRE","","null","","display digit","<div class=""stimulus"">7</div>","null","7,2,3,6,5,0,3,2","","","7",""
"html-keyboard-response","32","156411","0.0-32.0","ADV_EN_28","PRE","","null","","display digit","<div class=""stimulus"">2</div>","null","7,2,3,6,5,0,3,2","","","2",""
"html-keyboard-response","33","158212","0.0-33.0","ADV_EN_28","PRE","","null","","display digit","<div class=""stimulus"">3</div>","null","7,2,3,6,5,0,3,2","","","3",""
"html-keyboard-response","34","160025","0.0-34.0","ADV_EN_28","PRE","","null","","display digit","<div class=""stimulus"">6</div>","null","7,2,3,6,5,0,3,2","","","6",""
"html-keyboard-response","35","161838","0.0-35.0","ADV_EN_28","PRE","","null","","display digit","<div class=""stimulus"">5</div>","null","7,2,3,6,5,0,3,2","","","5",""
"html-keyboard-response","36","163640","0.0-36.0","ADV_EN_28","PRE","","null","","display digit","<div class=""stimulus"">0</div>","null","7,2,3,6,5,0,3,2","","","0",""
"html-keyboard-response","37","165452","0.0-37.0","ADV_EN_28","PRE","","null","","display digit","<div class=""stimulus"">3</div>","null","7,2,3,6,5,0,3,2","","","3",""
"html-keyboard-response","38","167261","0.0-38.0","ADV_EN_28","PRE","","null","","display digit","<div class=""stimulus"">2</div>","null","7,2,3,6,5,0,3,2","","","2",""
"survey-html-form-autofocus","39","172551","0.0-39.0","ADV_EN_28","PRE","","4602","{""recall"":""2""}","recall","","","72365032","2","2","","true"
"html-keyboard-response","40","174042","0.0-40.0","ADV_EN_28","PRE","","null","","fixation cross","<div class='stimulus'>+</div>","null","","","","",""
"html-keyboard-response","41","175851","0.0-41.0","ADV_EN_28","PRE","","null","","display digit","<div class=""stimulus"">9</div>","null","9,5","","","9",""
"html-keyboard-response","42","177663","0.0-42.0","ADV_EN_28","PRE","","null","","display digit","<div class=""stimulus"">5</div>","null","9,5","","","5",""
"survey-html-form-autofocus","43","183853","0.0-43.0","ADV_EN_28","PRE","","5505.899999991059","{""recall"":""5""}","recall","","","95","5","5","","true"
"html-keyboard-response","44","185329","0.0-44.0-0.0","ADV_EN_28","PRE","","null","","fixation cross","<div class='stimulus'>+</div>","null","","","","",""
"html-keyboard-response","45","187140","0.0-44.0-1.0","ADV_EN_28","PRE","","null","","display digit","<div class=""stimulus"">5</div>","null","5,0,4,9,2,8,6,2,5,9,2,7,2","","","5",""
"html-keyboard-response","46","188948","0.0-44.0-2.0","ADV_EN_28","PRE","","null","","display digit","<div class=""stimulus"">0</div>","null","5,0,4,9,2,8,6,2,5,9,2,7,2","","","0",""
"html-keyboard-response","47","190756","0.0-44.0-3.0","ADV_EN_28","PRE","","null","","display digit","<div class=""stimulus"">4</div>","null","5,0,4,9,2,8,6,2,5,9,2,7,2","","","4",""
"html-keyboard-response","48","192568","0.0-44.0-4.0","ADV_EN_28","PRE","","null","","display digit","<div class=""stimulus"">9</div>","null","5,0,4,9,2,8,6,2,5,9,2,7,2","","","9",""
"html-keyboard-response","49","194378","0.0-44.0-5.0","ADV_EN_28","PRE","","null","","display digit","<div class=""stimulus"">2</div>","null","5,0,4,9,2,8,6,2,5,9,2,7,2","","","2",""
"html-keyboard-response","50","196192","0.0-44.0-6.0","ADV_EN_28","PRE","","null","","display digit","<div class=""stimulus"">8</div>","null","5,0,4,9,2,8,6,2,5,9,2,7,2","","","8",""
"html-keyboard-response","51","198005","0.0-44.0-7.0","ADV_EN_28","PRE","","null","","display digit","<div class=""stimulus"">6</div>","null","5,0,4,9,2,8,6,2,5,9,2,7,2","","","6",""
"html-keyboard-response","52","199817","0.0-44.0-8.0","ADV_EN_28","PRE","","null","","display digit","<div class=""stimulus"">2</div>","null","5,0,4,9,2,8,6,2,5,9,2,7,2","","","2",""
"html-keyboard-response","53","201628","0.0-44.0-9.0","ADV_EN_28","PRE","","null","","display digit","<div class=""stimulus"">5</div>","null","5,0,4,9,2,8,6,2,5,9,2,7,2","","","5",""
"html-keyboard-response","54","203439","0.0-44.0-10.0","ADV_EN_28","PRE","","null","","display digit","<div class=""stimulus"">9</div>","null","5,0,4,9,2,8,6,2,5,9,2,7,2","","","9",""
"html-keyboard-response","55","205236","0.0-44.0-11.0","ADV_EN_28","PRE","","null","","display digit","<div class=""stimulus"">2</div>","null","5,0,4,9,2,8,6,2,5,9,2,7,2","","","2",""
"html-keyboard-response","56","207037","0.0-44.0-12.0","ADV_EN_28","PRE","","null","","display digit","<div class=""stimulus"">7</div>","null","5,0,4,9,2,8,6,2,5,9,2,7,2","","","7",""
"html-keyboard-response","57","208845","0.0-44.0-13.0","ADV_EN_28","PRE","","null","","display digit","<div class=""stimulus"">2</div>","null","5,0,4,9,2,8,6,2,5,9,2,7,2","","","2",""
"survey-html-form-autofocus","58","215854","0.0-44.0-14.0","ADV_EN_28","PRE","","6320.699999988079","{""recall"":""72""}","recall","","","5049286259272","72","72","","true"
"html-keyboard-response","59","217328","0.0-44.0-15.0","ADV_EN_28","PRE","","null","","fixation cross","<div class='stimulus'>+</div>","null","","","","",""
"html-keyboard-response","60","219122","0.0-44.0-16.0","ADV_EN_28","PRE","","null","","display digit","<div class=""stimulus"">6</div>","null","6,1","","","6",""
"html-keyboard-response","61","220933","0.0-44.0-17.0","ADV_EN_28","PRE","","null","","display digit","<div class=""stimulus"">1</div>","null","6,1","","","1",""
"survey-html-form-autofocus","62","226450","0.0-44.0-18.0","ADV_EN_28","PRE","","4832.899999991059","{""recall"":""61""}","recall","","","61","61","61","","true"
"html-keyboard-response","63","227921","0.0-44.0-19.0-0.0","ADV_EN_28","PRE","","null","","fixation cross","<div class='stimulus'>+</div>","null","","","","",""
"html-keyboard-response","64","229730","0.0-44.0-19.0-1.0","ADV_EN_28","PRE","","null","","display digit","<div class=""stimulus"">6</div>","null","6,2,9,0,5,1,0,1,7,9","","","6",""
"html-keyboard-response","65","231542","0.0-44.0-19.0-2.0","ADV_EN_28","PRE","","null","","display digit","<div class=""stimulus"">2</div>","null","6,2,9,0,5,1,0,1,7,9","","","2",""
"html-keyboard-response","66","233353","0.0-44.0-19.0-3.0","ADV_EN_28","PRE","","null","","display digit","<div class=""stimulus"">9</div>","null","6,2,9,0,5,1,0,1,7,9","","","9",""
"html-keyboard-response","67","235157","0.0-44.0-19.0-4.0","ADV_EN_28","PRE","","null","","display digit","<div class=""stimulus"">0</div>","null","6,2,9,0,5,1,0,1,7,9","","","0",""
"html-keyboard-response","68","236962","0.0-44.0-19.0-5.0","ADV_EN_28","PRE","","null","","display digit","<div class=""stimulus"">5</div>","null","6,2,9,0,5,1,0,1,7,9","","","5",""
"html-keyboard-response","69","238775","0.0-44.0-19.0-6.0","ADV_EN_28","PRE","","null","","display digit","<div class=""stimulus"">1</div>","null","6,2,9,0,5,1,0,1,7,9","","","1",""
"html-keyboard-response","70","240588","0.0-44.0-19.0-7.0","ADV_EN_28","PRE","","null","","display digit","<div class=""stimulus"">0</div>","null","6,2,9,0,5,1,0,1,7,9","","","0",""
"html-keyboard-response","71","242390","0.0-44.0-19.0-8.0","ADV_EN_28","PRE","","null","","display digit","<div class=""stimulus"">1</div>","null","6,2,9,0,5,1,0,1,7,9","","","1",""
"html-keyboard-response","72","244194","0.0-44.0-19.0-9.0","ADV_EN_28","PRE","","null","","display digit","<div class=""stimulus"">7</div>","null","6,2,9,0,5,1,0,1,7,9","","","7",""
"html-keyboard-response","73","246002","0.0-44.0-19.0-10.0","ADV_EN_28","PRE","","null","","display digit","<div class=""stimulus"">9</div>","null","6,2,9,0,5,1,0,1,7,9","","","9",""
"survey-html-form-autofocus","74","252499","0.0-44.0-19.0-11.0","ADV_EN_28","PRE","","5814.20000000298","{""recall"":""179""}","recall","","","6290510179","179","179","","true"
"html-keyboard-response","75","253982","0.0-44.0-19.0-12.0","ADV_EN_28","PRE","","null","","fixation cross","<div class='stimulus'>+</div>","null","","","","",""
"html-keyboard-response","76","255793","0.0-44.0-19.0-13.0","ADV_EN_28","PRE","","null","","display digit","<div class=""stimulus"">2</div>","null","2,4,2,4,7,5","","","2",""
"html-keyboard-response","77","257605","0.0-44.0-19.0-14.0","ADV_EN_28","PRE","","null","","display digit","<div class=""stimulus"">4</div>","null","2,4,2,4,7,5","","","4",""
"html-keyboard-response","78","259419","0.0-44.0-19.0-15.0","ADV_EN_28","PRE","","null","","display digit","<div class=""stimulus"">2</div>","null","2,4,2,4,7,5","","","2",""
"html-keyboard-response","79","261231","0.0-44.0-19.0-16.0","ADV_EN_28","PRE","","null","","display digit","<div class=""stimulus"">4</div>","null","2,4,2,4,7,5","","","4",""
"html-keyboard-response","80","263042","0.0-44.0-19.0-17.0","ADV_EN_28","PRE","","null","","display digit","<div class=""stimulus"">7</div>","null","2,4,2,4,7,5","","","7",""
"html-keyboard-response","81","264846","0.0-44.0-19.0-18.0","ADV_EN_28","PRE","","null","","display digit","<div class=""stimulus"">5</div>","null","2,4,2,4,7,5","","","5",""
"survey-html-form-autofocus","82","270044","0.0-44.0-19.0-19.0","ADV_EN_28","PRE","","4513.100000008941","{""recall"":""475""}","recall","","","242475","475","475","","true"
"html-keyboard-response","83","271521","0.0-44.0-19.0-20.0-0.0","ADV_EN_28","PRE","","null","","fixation cross","<div class='stimulus'>+</div>","null","","","","",""
"html-keyboard-response","84","273333","0.0-44.0-19.0-20.0-1.0","ADV_EN_28","PRE","","null","","display digit","<div class=""stimulus"">2</div>","null","2,0,7,6,3,8,5,1,4,5,7","","","2",""
"html-keyboard-response","85","275145","0.0-44.0-19.0-20.0-2.0","ADV_EN_28","PRE","","null","","display digit","<div class=""stimulus"">0</div>","null","2,0,7,6,3,8,5,1,4,5,7","","","0",""
"html-keyboard-response","86","276956","0.0-44.0-19.0-20.0-3.0","ADV_EN_28","PRE","","null","","display digit","<div class=""stimulus"">7</div>","null","2,0,7,6,3,8,5,1,4,5,7","","","7",""
"html-keyboard-response","87","278771","0.0-44.0-19.0-20.0-4.0","ADV_EN_28","PRE","","null","","display digit","<div class=""stimulus"">6</div>","null","2,0,7,6,3,8,5,1,4,5,7","","","6",""
"html-keyboard-response","88","280576","0.0-44.0-19.0-20.0-5.0","ADV_EN_28","PRE","","null","","display digit","<div class=""stimulus"">3</div>","null","2,0,7,6,3,8,5,1,4,5,7","","","3",""
"html-keyboard-response","89","282383","0.0-44.0-19.0-20.0-6.0","ADV_EN_28","PRE","","null","","display digit","<div class=""stimulus"">8</div>","null","2,0,7,6,3,8,5,1,4,5,7","","","8",""
"html-keyboard-response","90","284193","0.0-44.0-19.0-20.0-7.0","ADV_EN_28","PRE","","null","","display digit","<div class=""stimulus"">5</div>","null","2,0,7,6,3,8,5,1,4,5,7","","","5",""
"html-keyboard-response","91","286005","0.0-44.0-19.0-20.0-8.0","ADV_EN_28","PRE","","null","","display digit","<div class=""stimulus"">1</div>","null","2,0,7,6,3,8,5,1,4,5,7","","","1",""
"html-keyboard-response","92","287815","0.0-44.0-19.0-20.0-9.0","ADV_EN_28","PRE","","null","","display digit","<div class=""stimulus"">4</div>","null","2,0,7,6,3,8,5,1,4,5,7","","","4",""
"html-keyboard-response","93","289613","0.0-44.0-19.0-20.0-10.0","ADV_EN_28","PRE","","null","","display digit","<div class=""stimulus"">5</div>","null","2,0,7,6,3,8,5,1,4,5,7","","","5",""
"html-keyboard-response","94","291411","0.0-44.0-19.0-20.0-11.0","ADV_EN_28","PRE","","null","","display digit","<div class=""stimulus"">7</div>","null","2,0,7,6,3,8,5,1,4,5,7","","","7",""
"survey-html-form-autofocus","95","298335","0.0-44.0-19.0-20.0-12.0","ADV_EN_28","PRE","","6238.4000000059605","{""recall"":""1457""}","recall","","","20763851457","1457","1457","","true"
"html-keyboard-response","96","299812","0.0-44.0-19.0-20.0-13.0","ADV_EN_28","PRE","","null","","fixation cross","<div class='stimulus'>+</div>","null","","","","",""
"html-keyboard-response","97","301613","0.0-44.0-19.0-20.0-14.0","ADV_EN_28","PRE","","null","","display digit","<div class=""stimulus"">8</div>","null","8,6,7,4,3,0,1,2,4,2,0,3","","","8",""
"html-keyboard-response","98","303424","0.0-44.0-19.0-20.0-15.0","ADV_EN_28","PRE","","null","","display digit","<div class=""stimulus"">6</div>","null","8,6,7,4,3,0,1,2,4,2,0,3","","","6",""
"html-keyboard-response","99","305220","0.0-44.0-19.0-20.0-16.0","ADV_EN_28","PRE","","null","","display digit","<div class=""stimulus"">7</div>","null","8,6,7,4,3,0,1,2,4,2,0,3","","","7",""
"html-keyboard-response","100","307035","0.0-44.0-19.0-20.0-17.0","ADV_EN_28","PRE","","null","","display digit","<div class=""stimulus"">4</div>","null","8,6,7,4,3,0,1,2,4,2,0,3","","","4",""
"html-keyboard-response","101","308844","0.0-44.0-19.0-20.0-18.0","ADV_EN_28","PRE","","null","","display digit","<div class=""stimulus"">3</div>","null","8,6,7,4,3,0,1,2,4,2,0,3","","","3",""
"html-keyboard-response","102","310650","0.0-44.0-19.0-20.0-19.0","ADV_EN_28","PRE","","null","","display digit","<div class=""stimulus"">0</div>","null","8,6,7,4,3,0,1,2,4,2,0,3","","","0",""
"html-keyboard-response","103","312457","0.0-44.0-19.0-20.0-20.0","ADV_EN_28","PRE","","null","","display digit","<div class=""stimulus"">1</div>","null","8,6,7,4,3,0,1,2,4,2,0,3","","","1",""
"html-keyboard-response","104","314264","0.0-44.0-19.0-20.0-21.0","ADV_EN_28","PRE","","null","","display digit","<div class=""stimulus"">2</div>","null","8,6,7,4,3,0,1,2,4,2,0,3","","","2",""
"html-keyboard-response","105","316076","0.0-44.0-19.0-20.0-22.0","ADV_EN_28","PRE","","null","","display digit","<div class=""stimulus"">4</div>","null","8,6,7,4,3,0,1,2,4,2,0,3","","","4",""
"html-keyboard-response","106","317874","0.0-44.0-19.0-20.0-23.0","ADV_EN_28","PRE","","null","","display digit","<div class=""stimulus"">2</div>","null","8,6,7,4,3,0,1,2,4,2,0,3","","","2",""
"html-keyboard-response","107","319689","0.0-44.0-19.0-20.0-24.0","ADV_EN_28","PRE","","null","","display digit","<div class=""stimulus"">0</div>","null","8,6,7,4,3,0,1,2,4,2,0,3","","","0",""
"html-keyboard-response","108","321498","0.0-44.0-19.0-20.0-25.0","ADV_EN_28","PRE","","null","","display digit","<div class=""stimulus"">3</div>","null","8,6,7,4,3,0,1,2,4,2,0,3","","","3",""
"survey-html-form-autofocus","109","330731","0.0-44.0-19.0-20.0-26.0","ADV_EN_28","PRE","","8545.90000000596","{""recall"":""4203""}","recall","","","867430124203","4203","4203","","true"
"html-keyboard-response","110","332212","0.0-44.0-19.0-20.0-27.0-0.0","ADV_EN_28","PRE","","null","","fixation cross","<div class='stimulus'>+</div>","null","","","","",""
"html-keyboard-response","111","334016","0.0-44.0-19.0-20.0-27.0-1.0","ADV_EN_28","PRE","","null","","display digit","<div class=""stimulus"">7</div>","null","7,5,9,6,2,4,8,9,8","","","7",""
"html-keyboard-response","112","335814","0.0-44.0-19.0-20.0-27.0-2.0","ADV_EN_28","PRE","","null","","display digit","<div class=""stimulus"">5</div>","null","7,5,9,6,2,4,8,9,8","","","5",""
"html-keyboard-response","113","337625","0.0-44.0-19.0-20.0-27.0-3.0","ADV_EN_28","PRE","","null","","display digit","<div class=""stimulus"">9</div>","null","7,5,9,6,2,4,8,9,8","","","9",""
"html-keyboard-response","114","339428","0.0-44.0-19.0-20.0-27.0-4.0","ADV_EN_28","PRE","","null","","display digit","<div class=""stimulus"">6</div>","null","7,5,9,6,2,4,8,9,8","","","6",""
"html-keyboard-response","115","341243","0.0-44.0-19.0-20.0-27.0-5.0","ADV_EN_28","PRE","","null","","display digit","<div class=""stimulus"">2</div>","null","7,5,9,6,2,4,8,9,8","","","2",""
"html-keyboard-response","116","343042","0.0-44.0-19.0-20.0-27.0-6.0","ADV_EN_28","PRE","","null","","display digit","<div class=""stimulus"">4</div>","null","7,5,9,6,2,4,8,9,8","","","4",""
"html-keyboard-response","117","344856","0.0-44.0-19.0-20.0-27.0-7.0","ADV_EN_28","PRE","","null","","display digit","<div class=""stimulus"">8</div>","null","7,5,9,6,2,4,8,9,8","","","8",""
"html-keyboard-response","118","346668","0.0-44.0-19.0-20.0-27.0-8.0","ADV_EN_28","PRE","","null","","display digit","<div class=""stimulus"">9</div>","null","7,5,9,6,2,4,8,9,8","","","9",""
"html-keyboard-response","119","348482","0.0-44.0-19.0-20.0-27.0-9.0","ADV_EN_28","PRE","","null","","display digit","<div class=""stimulus"">8</div>","null","7,5,9,6,2,4,8,9,8","","","8",""
"survey-html-form-autofocus","120","357734","0.0-44.0-19.0-20.0-27.0-10.0","ADV_EN_28","PRE","","8566.5","{""recall"":""24898""}","recall","","","759624898","24898","24898","","true"
"html-keyboard-response","121","359220","0.0-44.0-19.0-20.0-27.0-11.0","ADV_EN_28","PRE","","null","","fixation cross","<div class='stimulus'>+</div>","null","","","","",""
"html-keyboard-response","122","361029","0.0-44.0-19.0-20.0-27.0-12.0","ADV_EN_28","PRE","","null","","display digit","<div class=""stimulus"">2</div>","null","2,1,4,9,3,9,8,5","","","2",""
"html-keyboard-response","123","362829","0.0-44.0-19.0-20.0-27.0-13.0","ADV_EN_28","PRE","","null","","display digit","<div class=""stimulus"">1</div>","null","2,1,4,9,3,9,8,5","","","1",""
"html-keyboard-response","124","364624","0.0-44.0-19.0-20.0-27.0-14.0","ADV_EN_28","PRE","","null","","display digit","<div class=""stimulus"">4</div>","null","2,1,4,9,3,9,8,5","","","4",""
"html-keyboard-response","125","366435","0.0-44.0-19.0-20.0-27.0-15.0","ADV_EN_28","PRE","","null","","display digit","<div class=""stimulus"">9</div>","null","2,1,4,9,3,9,8,5","","","9",""
"html-keyboard-response","126","368239","0.0-44.0-19.0-20.0-27.0-16.0","ADV_EN_28","PRE","","null","","display digit","<div class=""stimulus"">3</div>","null","2,1,4,9,3,9,8,5","","","3",""
"html-keyboard-response","127","370051","0.0-44.0-19.0-20.0-27.0-17.0","ADV_EN_28","PRE","","null","","display digit","<div class=""stimulus"">9</div>","null","2,1,4,9,3,9,8,5","","","9",""
"html-keyboard-response","128","371865","0.0-44.0-19.0-20.0-27.0-18.0","ADV_EN_28","PRE","","null","","display digit","<div class=""stimulus"">8</div>","null","2,1,4,9,3,9,8,5","","","8",""
"html-keyboard-response","129","373660","0.0-44.0-19.0-20.0-27.0-19.0","ADV_EN_28","PRE","","null","","display digit","<div class=""stimulus"">5</div>","null","2,1,4,9,3,9,8,5","","","5",""
"survey-html-form-autofocus","130","384013","0.0-44.0-19.0-20.0-27.0-20.0","ADV_EN_28","PRE","","9671.199999988079","{""recall"":""93985""}","recall","","","21493985","93985","93985","","true"
"html-keyboard-response","131","385495","0.0-44.0-19.0-20.0-27.0-21.0-0.0","ADV_EN_28","PRE","","null","","fixation cross","<div class='stimulus'>+</div>","null","","","","",""
"html-keyboard-response","132","387309","0.0-44.0-19.0-20.0-27.0-21.0-1.0","ADV_EN_28","PRE","","null","","display digit","<div class=""stimulus"">1</div>","null","1,7,6,2,6,0","","","1",""
"html-keyboard-response","133","389117","0.0-44.0-19.0-20.0-27.0-21.0-2.0","ADV_EN_28","PRE","","null","","display digit","<div class=""stimulus"">7</div>","null","1,7,6,2,6,0","","","7",""
"html-keyboard-response","134","390928","0.0-44.0-19.0-20.0-27.0-21.0-3.0","ADV_EN_28","PRE","","null","","display digit","<div class=""stimulus"">6</div>","null","1,7,6,2,6,0","","","6",""
"html-keyboard-response","135","392737","0.0-44.0-19.0-20.0-27.0-21.0-4.0","ADV_EN_28","PRE","","null","","display digit","<div class=""stimulus"">2</div>","null","1,7,6,2,6,0","","","2",""
"html-keyboard-response","136","394548","0.0-44.0-19.0-20.0-27.0-21.0-5.0","ADV_EN_28","PRE","","null","","display digit","<div class=""stimulus"">6</div>","null","1,7,6,2,6,0","","","6",""
"html-keyboard-response","137","396348","0.0-44.0-19.0-20.0-27.0-21.0-6.0","ADV_EN_28","PRE","","null","","display digit","<div class=""stimulus"">0</div>","null","1,7,6,2,6,0","","","0",""
"survey-html-form-autofocus","138","405838","0.0-44.0-19.0-20.0-27.0-21.0-7.0","ADV_EN_28","PRE","","8802.70000000298","{""recall"":""176260""}","recall","","","176260","176260","176260","","true"
"html-keyboard-response","139","407319","0.0-44.0-19.0-20.0-27.0-21.0-8.0","ADV_EN_28","PRE","","null","","fixation cross","<div class='stimulus'>+</div>","null","","","","",""
"html-keyboard-response","140","409129","0.0-44.0-19.0-20.0-27.0-21.0-9.0","ADV_EN_28","PRE","","null","","display digit","<div class=""stimulus"">0</div>","null","0,5,3,9,1,8,7,3,1,0,7,0,7","","","0",""
"html-keyboard-response","141","410938","0.0-44.0-19.0-20.0-27.0-21.0-10.0","ADV_EN_28","PRE","","null","","display digit","<div class=""stimulus"">5</div>","null","0,5,3,9,1,8,7,3,1,0,7,0,7","","","5",""
"html-keyboard-response","142","412749","0.0-44.0-19.0-20.0-27.0-21.0-11.0","ADV_EN_28","PRE","","null","","display digit","<div class=""stimulus"">3</div>","null","0,5,3,9,1,8,7,3,1,0,7,0,7","","","3",""
"html-keyboard-response","143","414562","0.0-44.0-19.0-20.0-27.0-21.0-12.0","ADV_EN_28","PRE","","null","","display digit","<div class=""stimulus"">9</div>","null","0,5,3,9,1,8,7,3,1,0,7,0,7","","","9",""
"html-keyboard-response","144","416375","0.0-44.0-19.0-20.0-27.0-21.0-13.0","ADV_EN_28","PRE","","null","","display digit","<div class=""stimulus"">1</div>","null","0,5,3,9,1,8,7,3,1,0,7,0,7","","","1",""
"html-keyboard-response","145","418187","0.0-44.0-19.0-20.0-27.0-21.0-14.0","ADV_EN_28","PRE","","null","","display digit","<div class=""stimulus"">8</div>","null","0,5,3,9,1,8,7,3,1,0,7,0,7","","","8",""
"html-keyboard-response","146","420000","0.0-44.0-19.0-20.0-27.0-21.0-15.0","ADV_EN_28","PRE","","null","","display digit","<div class=""stimulus"">7</div>","null","0,5,3,9,1,8,7,3,1,0,7,0,7","","","7",""
"html-keyboard-response","147","421815","0.0-44.0-19.0-20.0-27.0-21.0-16.0","ADV_EN_28","PRE","","null","","display digit","<div class=""stimulus"">3</div>","null","0,5,3,9,1,8,7,3,1,0,7,0,7","","","3",""
"html-keyboard-response","148","423613","0.0-44.0-19.0-20.0-27.0-21.0-17.0","ADV_EN_28","PRE","","null","","display digit","<div class=""stimulus"">1</div>","null","0,5,3,9,1,8,7,3,1,0,7,0,7","","","1",""
"html-keyboard-response","149","425426","0.0-44.0-19.0-20.0-27.0-21.0-18.0","ADV_EN_28","PRE","","null","","display digit","<div class=""stimulus"">0</div>","null","0,5,3,9,1,8,7,3,1,0,7,0,7","","","0",""
"html-keyboard-response","150","427236","0.0-44.0-19.0-20.0-27.0-21.0-19.0","ADV_EN_28","PRE","","null","","display digit","<div class=""stimulus"">7</div>","null","0,5,3,9,1,8,7,3,1,0,7,0,7","","","7",""
"html-keyboard-response","151","429047","0.0-44.0-19.0-20.0-27.0-21.0-20.0","ADV_EN_28","PRE","","null","","display digit","<div class=""stimulus"">0</div>","null","0,5,3,9,1,8,7,3,1,0,7,0,7","","","0",""
"html-keyboard-response","152","430853","0.0-44.0-19.0-20.0-27.0-21.0-21.0","ADV_EN_28","PRE","","null","","display digit","<div class=""stimulus"">7</div>","null","0,5,3,9,1,8,7,3,1,0,7,0,7","","","7",""
"survey-html-form-autofocus","153","440185","0.0-44.0-19.0-20.0-27.0-21.0-22.0","ADV_EN_28","PRE","","8645.70000000298","{""recall"":""310707""}","recall","","","0539187310707","310707","310707","","true"
"html-keyboard-response","154","441673","0.0-44.0-19.0-20.0-27.0-21.0-23.0-0.0","ADV_EN_28","PRE","","null","","fixation cross","<div class='stimulus'>+</div>","null","","","","",""
"html-keyboard-response","155","443479","0.0-44.0-19.0-20.0-27.0-21.0-23.0-1.0","ADV_EN_28","PRE","","null","","display digit","<div class=""stimulus"">4</div>","null","4,9,7,0,2,0,2,0","","","4",""
"html-keyboard-response","156","445278","0.0-44.0-19.0-20.0-27.0-21.0-23.0-2.0","ADV_EN_28","PRE","","null","","display digit","<div class=""stimulus"">9</div>","null","4,9,7,0,2,0,2,0","","","9",""
"html-keyboard-response","157","447087","0.0-44.0-19.0-20.0-27.0-21.0-23.0-3.0","ADV_EN_28","PRE","","null","","display digit","<div class=""stimulus"">7</div>","null","4,9,7,0,2,0,2,0","","","7",""
"html-keyboard-response","158","448885","0.0-44.0-19.0-20.0-27.0-21.0-23.0-4.0","ADV_EN_28","PRE","","null","","display digit","<div class=""stimulus"">0</div>","null","4,9,7,0,2,0,2,0","","","0",""
"html-keyboard-response","159","450698","0.0-44.0-19.0-20.0-27.0-21.0-23.0-5.0","ADV_EN_28","PRE","","null","","display digit","<div class=""stimulus"">2</div>","null","4,9,7,0,2,0,2,0","","","2",""
"html-keyboard-response","160","452508","0.0-44.0-19.0-20.0-27.0-21.0-23.0-6.0","ADV_EN_28","PRE","","null","","display digit","<div class=""stimulus"">0</div>","null","4,9,7,0,2,0,2,0","","","0",""
"html-keyboard-response","161","454307","0.0-44.0-19.0-20.0-27.0-21.0-23.0-7.0","ADV_EN_28","PRE","","null","","display digit","<div class=""stimulus"">2</div>","null","4,9,7,0,2,0,2,0","","","2",""
"html-keyboard-response","162","456103","0.0-44.0-19.0-20.0-27.0-21.0-23.0-8.0","ADV_EN_28","PRE","","null","","display digit","<div class=""stimulus"">0</div>","null","4,9,7,0,2,0,2,0","","","0",""
"survey-html-form-autofocus","163","493985","0.0-44.0-19.0-20.0-27.0-21.0-23.0-9.0","ADV_EN_28","PRE","","37196.20000000298","{""recall"":""9702020""}","recall","","","49702020","9702020","9702020","","true"
"html-keyboard-response","164","495464","0.0-44.0-19.0-20.0-27.0-21.0-23.0-10.0","ADV_EN_28","PRE","","null","","fixation cross","<div class='stimulus'>+</div>","null","","","","",""
"html-keyboard-response","165","497277","0.0-44.0-19.0-20.0-27.0-21.0-23.0-11.0","ADV_EN_28","PRE","","null","","display digit","<div class=""stimulus"">4</div>","null","4,6,5,1,8,9,2,0,4,9,0,3,8","","","4",""
"html-keyboard-response","166","499090","0.0-44.0-19.0-20.0-27.0-21.0-23.0-12.0","ADV_EN_28","PRE","","null","","display digit","<div class=""stimulus"">6</div>","null","4,6,5,1,8,9,2,0,4,9,0,3,8","","","6",""
"html-keyboard-response","167","500905","0.0-44.0-19.0-20.0-27.0-21.0-23.0-13.0","ADV_EN_28","PRE","","null","","display digit","<div class=""stimulus"">5</div>","null","4,6,5,1,8,9,2,0,4,9,0,3,8","","","5",""
"html-keyboard-response","168","502714","0.0-44.0-19.0-20.0-27.0-21.0-23.0-14.0","ADV_EN_28","PRE","","null","","display digit","<div class=""stimulus"">1</div>","null","4,6,5,1,8,9,2,0,4,9,0,3,8","","","1",""
"html-keyboard-response","169","504518","0.0-44.0-19.0-20.0-27.0-21.0-23.0-15.0","ADV_EN_28","PRE","","null","","display digit","<div class=""stimulus"">8</div>","null","4,6,5,1,8,9,2,0,4,9,0,3,8","","","8",""
"html-keyboard-response","170","506317","0.0-44.0-19.0-20.0-27.0-21.0-23.0-16.0","ADV_EN_28","PRE","","null","","display digit","<div class=""stimulus"">9</div>","null","4,6,5,1,8,9,2,0,4,9,0,3,8","","","9",""
"html-keyboard-response","171","508116","0.0-44.0-19.0-20.0-27.0-21.0-23.0-17.0","ADV_EN_28","PRE","","null","","display digit","<div class=""stimulus"">2</div>","null","4,6,5,1,8,9,2,0,4,9,0,3,8","","","2",""
"html-keyboard-response","172","509927","0.0-44.0-19.0-20.0-27.0-21.0-23.0-18.0","ADV_EN_28","PRE","","null","","display digit","<div class=""stimulus"">0</div>","null","4,6,5,1,8,9,2,0,4,9,0,3,8","","","0",""
"html-keyboard-response","173","511727","0.0-44.0-19.0-20.0-27.0-21.0-23.0-19.0","ADV_EN_28","PRE","","null","","display digit","<div class=""stimulus"">4</div>","null","4,6,5,1,8,9,2,0,4,9,0,3,8","","","4",""
"html-keyboard-response","174","513527","0.0-44.0-19.0-20.0-27.0-21.0-23.0-20.0","ADV_EN_28","PRE","","null","","display digit","<div class=""stimulus"">9</div>","null","4,6,5,1,8,9,2,0,4,9,0,3,8","","","9",""
"html-keyboard-response","175","515330","0.0-44.0-19.0-20.0-27.0-21.0-23.0-21.0","ADV_EN_28","PRE","","null","","display digit","<div class=""stimulus"">0</div>","null","4,6,5,1,8,9,2,0,4,9,0,3,8","","","0",""
"html-keyboard-response","176","517138","0.0-44.0-19.0-20.0-27.0-21.0-23.0-22.0","ADV_EN_28","PRE","","null","","display digit","<div class=""stimulus"">3</div>","null","4,6,5,1,8,9,2,0,4,9,0,3,8","","","3",""
"html-keyboard-response","177","518949","0.0-44.0-19.0-20.0-27.0-21.0-23.0-23.0","ADV_EN_28","PRE","","null","","display digit","<div class=""stimulus"">8</div>","null","4,6,5,1,8,9,2,0,4,9,0,3,8","","","8",""
"survey-html-form-autofocus","178","541486","0.0-44.0-19.0-20.0-27.0-21.0-23.0-24.0","ADV_EN_28","PRE","","21852.80000001192","{""recall"":""2049038""}","recall","","","4651892049038","2049038","2049038","","true"
"html-keyboard-response","179","542975","0.0-44.0-19.0-20.0-27.0-21.0-23.0-25.0-0.0","ADV_EN_28","PRE","","null","","fixation cross","<div class='stimulus'>+</div>","null","","","","",""
"html-keyboard-response","180","544783","0.0-44.0-19.0-20.0-27.0-21.0-23.0-25.0-1.0","ADV_EN_28","PRE","","null","","display digit","<div class=""stimulus"">8</div>","null","8,0,7,2,0,8,6,7,4","","","8",""
"html-keyboard-response","181","546591","0.0-44.0-19.0-20.0-27.0-21.0-23.0-25.0-2.0","ADV_EN_28","PRE","","null","","display digit","<div class=""stimulus"">0</div>","null","8,0,7,2,0,8,6,7,4","","","0",""
"html-keyboard-response","182","548392","0.0-44.0-19.0-20.0-27.0-21.0-23.0-25.0-3.0","ADV_EN_28","PRE","","null","","display digit","<div class=""stimulus"">7</div>","null","8,0,7,2,0,8,6,7,4","","","7",""
"html-keyboard-response","183","550202","0.0-44.0-19.0-20.0-27.0-21.0-23.0-25.0-4.0","ADV_EN_28","PRE","","null","","display digit","<div class=""stimulus"">2</div>","null","8,0,7,2,0,8,6,7,4","","","2",""
"html-keyboard-response","184","552015","0.0-44.0-19.0-20.0-27.0-21.0-23.0-25.0-5.0","ADV_EN_28","PRE","","null","","display digit","<div class=""stimulus"">0</div>","null","8,0,7,2,0,8,6,7,4","","","0",""
"html-keyboard-response","185","553812","0.0-44.0-19.0-20.0-27.0-21.0-23.0-25.0-6.0","ADV_EN_28","PRE","","null","","display digit","<div class=""stimulus"">8</div>","null","8,0,7,2,0,8,6,7,4","","","8",""
"html-keyboard-response","186","555622","0.0-44.0-19.0-20.0-27.0-21.0-23.0-25.0-7.0","ADV_EN_28","PRE","","null","","display digit","<div class=""stimulus"">6</div>","null","8,0,7,2,0,8,6,7,4","","","6",""
"html-keyboard-response","187","557432","0.0-44.0-19.0-20.0-27.0-21.0-23.0-25.0-8.0","ADV_EN_28","PRE","","null","","display digit","<div class=""stimulus"">7</div>","null","8,0,7,2,0,8,6,7,4","","","7",""
"html-keyboard-response","188","559245","0.0-44.0-19.0-20.0-27.0-21.0-23.0-25.0-9.0","ADV_EN_28","PRE","","null","","display digit","<div class=""stimulus"">4</div>","null","8,0,7,2,0,8,6,7,4","","","4",""
"survey-html-form-autofocus","189","568019","0.0-44.0-19.0-20.0-27.0-21.0-23.0-25.0-10.0","ADV_EN_28","PRE","","8089.100000008941","{""recall"":""1245462""}","recall","","","807208674","1245462","07208674","","false"
"html-keyboard-response","190","569499","0.0-44.0-19.0-20.0-27.0-21.0-23.0-25.0-11.0","ADV_EN_28","PRE","","null","","fixation cross","<div class='stimulus'>+</div>","null","","","","",""
"html-keyboard-response","191","571297","0.0-44.0-19.0-20.0-27.0-21.0-23.0-25.0-12.0","ADV_EN_28","PRE","","null","","display digit","<div class=""stimulus"">3</div>","null","3,2,0,9,0,6,1,0,2","","","3",""
"html-keyboard-response","192","573108","0.0-44.0-19.0-20.0-27.0-21.0-23.0-25.0-13.0","ADV_EN_28","PRE","","null","","display digit","<div class=""stimulus"">2</div>","null","3,2,0,9,0,6,1,0,2","","","2",""
"html-keyboard-response","193","574907","0.0-44.0-19.0-20.0-27.0-21.0-23.0-25.0-14.0","ADV_EN_28","PRE","","null","","display digit","<div class=""stimulus"">0</div>","null","3,2,0,9,0,6,1,0,2","","","0",""
"html-keyboard-response","194","576720","0.0-44.0-19.0-20.0-27.0-21.0-23.0-25.0-15.0","ADV_EN_28","PRE","","null","","display digit","<div class=""stimulus"">9</div>","null","3,2,0,9,0,6,1,0,2","","","9",""
"html-keyboard-response","195","578521","0.0-44.0-19.0-20.0-27.0-21.0-23.0-25.0-16.0","ADV_EN_28","PRE","","null","","display digit","<div class=""stimulus"">0</div>","null","3,2,0,9,0,6,1,0,2","","","0",""
"html-keyboard-response","196","580321","0.0-44.0-19.0-20.0-27.0-21.0-23.0-25.0-17.0","ADV_EN_28","PRE","","null","","display digit","<div class=""stimulus"">6</div>","null","3,2,0,9,0,6,1,0,2","","","6",""
"html-keyboard-response","197","582134","0.0-44.0-19.0-20.0-27.0-21.0-23.0-25.0-18.0","ADV_EN_28","PRE","","null","","display digit","<div class=""stimulus"">1</div>","null","3,2,0,9,0,6,1,0,2","","","1",""
"html-keyboard-response","198","583946","0.0-44.0-19.0-20.0-27.0-21.0-23.0-25.0-19.0","ADV_EN_28","PRE","","null","","display digit","<div class=""stimulus"">0</div>","null","3,2,0,9,0,6,1,0,2","","","0",""
"html-keyboard-response","199","585756","0.0-44.0-19.0-20.0-27.0-21.0-23.0-25.0-20.0","ADV_EN_28","PRE","","null","","display digit","<div class=""stimulus"">2</div>","null","3,2,0,9,0,6,1,0,2","","","2",""
"survey-html-form-autofocus","200","609954","0.0-44.0-19.0-20.0-27.0-21.0-23.0-25.0-21.0","ADV_EN_28","PRE","","23513","{""recall"":""20906102""}","recall","","","320906102","20906102","20906102","","true"
"html-keyboard-response","201","611436","0.0-44.0-19.0-20.0-27.0-21.0-23.0-25.0-22.0-0.0","ADV_EN_28","PRE","","null","","fixation cross","<div class='stimulus'>+</div>","null","","","","",""
"html-keyboard-response","202","613244","0.0-44.0-19.0-20.0-27.0-21.0-23.0-25.0-22.0-1.0","ADV_EN_28","PRE","","null","","display digit","<div class=""stimulus"">1</div>","null","1,6,0,7,6,2,8,7,0,4","","","1",""
"html-keyboard-response","203","615056","0.0-44.0-19.0-20.0-27.0-21.0-23.0-25.0-22.0-2.0","ADV_EN_28","PRE","","null","","display digit","<div class=""stimulus"">6</div>","null","1,6,0,7,6,2,8,7,0,4","","","6",""
"html-keyboard-response","204","616855","0.0-44.0-19.0-20.0-27.0-21.0-23.0-25.0-22.0-3.0","ADV_EN_28","PRE","","null","","display digit","<div class=""stimulus"">0</div>","null","1,6,0,7,6,2,8,7,0,4","","","0",""
"html-keyboard-response","205","618652","0.0-44.0-19.0-20.0-27.0-21.0-23.0-25.0-22.0-4.0","ADV_EN_28","PRE","","null","","display digit","<div class=""stimulus"">7</div>","null","1,6,0,7,6,2,8,7,0,4","","","7",""
"html-keyboard-response","206","620452","0.0-44.0-19.0-20.0-27.0-21.0-23.0-25.0-22.0-5.0","ADV_EN_28","PRE","","null","","display digit","<div class=""stimulus"">6</div>","null","1,6,0,7,6,2,8,7,0,4","","","6",""
"html-keyboard-response","207","622260","0.0-44.0-19.0-20.0-27.0-21.0-23.0-25.0-22.0-6.0","ADV_EN_28","PRE","","null","","display digit","<div class=""stimulus"">2</div>","null","1,6,0,7,6,2,8,7,0,4","","","2",""
"html-keyboard-response","208","624073","0.0-44.0-19.0-20.0-27.0-21.0-23.0-25.0-22.0-7.0","ADV_EN_28","PRE","","null","","display digit","<div class=""stimulus"">8</div>","null","1,6,0,7,6,2,8,7,0,4","","","8",""
"html-keyboard-response","209","625871","0.0-44.0-19.0-20.0-27.0-21.0-23.0-25.0-22.0-8.0","ADV_EN_28","PRE","","null","","display digit","<div class=""stimulus"">7</div>","null","1,6,0,7,6,2,8,7,0,4","","","7",""
"html-keyboard-response","210","627686","0.0-44.0-19.0-20.0-27.0-21.0-23.0-25.0-22.0-9.0","ADV_EN_28","PRE","","null","","display digit","<div class=""stimulus"">0</div>","null","1,6,0,7,6,2,8,7,0,4","","","0",""
"html-keyboard-response","211","629487","0.0-44.0-19.0-20.0-27.0-21.0-23.0-25.0-22.0-10.0","ADV_EN_28","PRE","","null","","display digit","<div class=""stimulus"">4</div>","null","1,6,0,7,6,2,8,7,0,4","","","4",""
"survey-html-form-autofocus","212","636426","0.0-44.0-19.0-20.0-27.0-21.0-23.0-25.0-22.0-11.0","ADV_EN_28","PRE","","6254.5","{""recall"":""99909302""}","recall","","","1607628704","99909302","607628704","","false"
"html-keyboard-response","213","637904","0.0-44.0-19.0-20.0-27.0-21.0-23.0-25.0-22.0-12.0","ADV_EN_28","PRE","","null","","fixation cross","<div class='stimulus'>+</div>","null","","","","",""
"html-keyboard-response","214","639714","0.0-44.0-19.0-20.0-27.0-21.0-23.0-25.0-22.0-13.0","ADV_EN_28","PRE","","null","","display digit","<div class=""stimulus"">2</div>","null","2,1,7,5,2,6,2,5,4,5,4","","","2",""
"html-keyboard-response","215","641526","0.0-44.0-19.0-20.0-27.0-21.0-23.0-25.0-22.0-14.0","ADV_EN_28","PRE","","null","","display digit","<div class=""stimulus"">1</div>","null","2,1,7,5,2,6,2,5,4,5,4","","","1",""
"html-keyboard-response","216","643344","0.0-44.0-19.0-20.0-27.0-21.0-23.0-25.0-22.0-15.0","ADV_EN_28","PRE","","null","","display digit","<div class=""stimulus"">7</div>","null","2,1,7,5,2,6,2,5,4,5,4","","","7",""
"html-keyboard-response","217","645157","0.0-44.0-19.0-20.0-27.0-21.0-23.0-25.0-22.0-16.0","ADV_EN_28","PRE","","null","","display digit","<div class=""stimulus"">5</div>","null","2,1,7,5,2,6,2,5,4,5,4","","","5",""
"html-keyboard-response","218","646966","0.0-44.0-19.0-20.0-27.0-21.0-23.0-25.0-22.0-17.0","ADV_EN_28","PRE","","null","","display digit","<div class=""stimulus"">2</div>","null","2,1,7,5,2,6,2,5,4,5,4","","","2",""
"html-keyboard-response","219","648780","0.0-44.0-19.0-20.0-27.0-21.0-23.0-25.0-22.0-18.0","ADV_EN_28","PRE","","null","","display digit","<div class=""stimulus"">6</div>","null","2,1,7,5,2,6,2,5,4,5,4","","","6",""
"html-keyboard-response","220","650588","0.0-44.0-19.0-20.0-27.0-21.0-23.0-25.0-22.0-19.0","ADV_EN_28","PRE","","null","","display digit","<div class=""stimulus"">2</div>","null","2,1,7,5,2,6,2,5,4,5,4","","","2",""
"html-keyboard-response","221","652400","0.0-44.0-19.0-20.0-27.0-21.0-23.0-25.0-22.0-20.0","ADV_EN_28","PRE","","null","","display digit","<div class=""stimulus"">5</div>","null","2,1,7,5,2,6,2,5,4,5,4","","","5",""
"html-keyboard-response","222","654216","0.0-44.0-19.0-20.0-27.0-21.0-23.0-25.0-22.0-21.0","ADV_EN_28","PRE","","null","","display digit","<div class=""stimulus"">4</div>","null","2,1,7,5,2,6,2,5,4,5,4","","","4",""
"html-keyboard-response","223","656027","0.0-44.0-19.0-20.0-27.0-21.0-23.0-25.0-22.0-22.0","ADV_EN_28","PRE","","null","","display digit","<div class=""stimulus"">5</div>","null","2,1,7,5,2,6,2,5,4,5,4","","","5",""
"html-keyboard-response","224","657838","0.0-44.0-19.0-20.0-27.0-21.0-23.0-25.0-22.0-23.0","ADV_EN_28","PRE","","null","","display digit","<div class=""stimulus"">4</div>","null","2,1,7,5,2,6,2,5,4,5,4","","","4",""
"survey-html-form-autofocus","225","679192","0.0-44.0-19.0-20.0-27.0-21.0-23.0-25.0-22.0-24.0","ADV_EN_28","PRE","","20668.30000001192","{""recall"":""752625454""}","recall","","","21752625454","752625454","752625454","","true"
"html-keyboard-response","226","680668","0.0-44.0-19.0-20.0-27.0-21.0-23.0-25.0-22.0-25.0-0.0","ADV_EN_28","PRE","","null","","fixation cross","<div class='stimulus'>+</div>","null","","","","",""
"html-keyboard-response","227","682465","0.0-44.0-19.0-20.0-27.0-21.0-23.0-25.0-22.0-25.0-1.0","ADV_EN_28","PRE","","null","","display digit","<div class=""stimulus"">8</div>","null","8,0,6,9,1,2,6,8,7,2","","","8",""
"html-keyboard-response","228","684264","0.0-44.0-19.0-20.0-27.0-21.0-23.0-25.0-22.0-25.0-2.0","ADV_EN_28","PRE","","null","","display digit","<div class=""stimulus"">0</div>","null","8,0,6,9,1,2,6,8,7,2","","","0",""
"html-keyboard-response","229","686071","0.0-44.0-19.0-20.0-27.0-21.0-23.0-25.0-22.0-25.0-3.0","ADV_EN_28","PRE","","null","","display digit","<div class=""stimulus"">6</div>","null","8,0,6,9,1,2,6,8,7,2","","","6",""
"html-keyboard-response","230","687872","0.0-44.0-19.0-20.0-27.0-21.0-23.0-25.0-22.0-25.0-4.0","ADV_EN_28","PRE","","null","","display digit","<div class=""stimulus"">9</div>","null","8,0,6,9,1,2,6,8,7,2","","","9",""
"html-keyboard-response","231","689683","0.0-44.0-19.0-20.0-27.0-21.0-23.0-25.0-22.0-25.0-5.0","ADV_EN_28","PRE","","null","","display digit","<div class=""stimulus"">1</div>","null","8,0,6,9,1,2,6,8,7,2","","","1",""
"html-keyboard-response","232","691485","0.0-44.0-19.0-20.0-27.0-21.0-23.0-25.0-22.0-25.0-6.0","ADV_EN_28","PRE","","null","","display digit","<div class=""stimulus"">2</div>","null","8,0,6,9,1,2,6,8,7,2","","","2",""
"html-keyboard-response","233","693287","0.0-44.0-19.0-20.0-27.0-21.0-23.0-25.0-22.0-25.0-7.0","ADV_EN_28","PRE","","null","","display digit","<div class=""stimulus"">6</div>","null","8,0,6,9,1,2,6,8,7,2","","","6",""
"html-keyboard-response","234","695097","0.0-44.0-19.0-20.0-27.0-21.0-23.0-25.0-22.0-25.0-8.0","ADV_EN_28","PRE","","null","","display digit","<div class=""stimulus"">8</div>","null","8,0,6,9,1,2,6,8,7,2","","","8",""
"html-keyboard-response","235","696911","0.0-44.0-19.0-20.0-27.0-21.0-23.0-25.0-22.0-25.0-9.0","ADV_EN_28","PRE","","null","","display digit","<div class=""stimulus"">7</div>","null","8,0,6,9,1,2,6,8,7,2","","","7",""
"html-keyboard-response","236","698723","0.0-44.0-19.0-20.0-27.0-21.0-23.0-25.0-22.0-25.0-10.0","ADV_EN_28","PRE","","null","","display digit","<div class=""stimulus"">2</div>","null","8,0,6,9,1,2,6,8,7,2","","","2",""
"survey-html-form-autofocus","237","721092","0.0-44.0-19.0-20.0-27.0-21.0-23.0-25.0-22.0-25.0-11.0","ADV_EN_28","PRE","","21685.30000001192","{""recall"":""2069126872""}","recall","","","8069126872","2069126872","8069126872","","false"
"html-keyboard-response","238","722576","0.0-44.0-19.0-20.0-27.0-21.0-23.0-25.0-22.0-25.0-12.0","ADV_EN_28","PRE","","null","","fixation cross","<div class='stimulus'>+</div>","null","","","","",""
"html-keyboard-response","239","724385","0.0-44.0-19.0-20.0-27.0-21.0-23.0-25.0-22.0-25.0-13.0","ADV_EN_28","PRE","","null","","display digit","<div class=""stimulus"">4</div>","null","4,8,7,2,1,3,7,5,9,2,5,7,1","","","4",""
"html-keyboard-response","240","726182","0.0-44.0-19.0-20.0-27.0-21.0-23.0-25.0-22.0-25.0-14.0","ADV_EN_28","PRE","","null","","display digit","<div class=""stimulus"">8</div>","null","4,8,7,2,1,3,7,5,9,2,5,7,1","","","8",""
"html-keyboard-response","241","727988","0.0-44.0-19.0-20.0-27.0-21.0-23.0-25.0-22.0-25.0-15.0","ADV_EN_28","PRE","","null","","display digit","<div class=""stimulus"">7</div>","null","4,8,7,2,1,3,7,5,9,2,5,7,1","","","7",""
"html-keyboard-response","242","729802","0.0-44.0-19.0-20.0-27.0-21.0-23.0-25.0-22.0-25.0-16.0","ADV_EN_28","PRE","","null","","display digit","<div class=""stimulus"">2</div>","null","4,8,7,2,1,3,7,5,9,2,5,7,1","","","2",""
"html-keyboard-response","243","731600","0.0-44.0-19.0-20.0-27.0-21.0-23.0-25.0-22.0-25.0-17.0","ADV_EN_28","PRE","","null","","display digit","<div class=""stimulus"">1</div>","null","4,8,7,2,1,3,7,5,9,2,5,7,1","","","1",""
"html-keyboard-response","244","733397","0.0-44.0-19.0-20.0-27.0-21.0-23.0-25.0-22.0-25.0-18.0","ADV_EN_28","PRE","","null","","display digit","<div class=""stimulus"">3</div>","null","4,8,7,2,1,3,7,5,9,2,5,7,1","","","3",""
"html-keyboard-response","245","735214","0.0-44.0-19.0-20.0-27.0-21.0-23.0-25.0-22.0-25.0-19.0","ADV_EN_28","PRE","","null","","display digit","<div class=""stimulus"">7</div>","null","4,8,7,2,1,3,7,5,9,2,5,7,1","","","7",""
"html-keyboard-response","246","737021","0.0-44.0-19.0-20.0-27.0-21.0-23.0-25.0-22.0-25.0-20.0","ADV_EN_28","PRE","","null","","display digit","<div class=""stimulus"">5</div>","null","4,8,7,2,1,3,7,5,9,2,5,7,1","","","5",""
"html-keyboard-response","247","738822","0.0-44.0-19.0-20.0-27.0-21.0-23.0-25.0-22.0-25.0-21.0","ADV_EN_28","PRE","","null","","display digit","<div class=""stimulus"">9</div>","null","4,8,7,2,1,3,7,5,9,2,5,7,1","","","9",""
"html-keyboard-response","248","740634","0.0-44.0-19.0-20.0-27.0-21.0-23.0-25.0-22.0-25.0-22.0","ADV_EN_28","PRE","","null","","display digit","<div class=""stimulus"">2</div>","null","4,8,7,2,1,3,7,5,9,2,5,7,1","","","2",""
"html-keyboard-response","249","742436","0.0-44.0-19.0-20.0-27.0-21.0-23.0-25.0-22.0-25.0-23.0","ADV_EN_28","PRE","","null","","display digit","<div class=""stimulus"">5</div>","null","4,8,7,2,1,3,7,5,9,2,5,7,1","","","5",""
"html-keyboard-response","250","744249","0.0-44.0-19.0-20.0-27.0-21.0-23.0-25.0-22.0-25.0-24.0","ADV_EN_28","PRE","","null","","display digit","<div class=""stimulus"">7</div>","null","4,8,7,2,1,3,7,5,9,2,5,7,1","","","7",""
"html-keyboard-response","251","746061","0.0-44.0-19.0-20.0-27.0-21.0-23.0-25.0-22.0-25.0-25.0","ADV_EN_28","PRE","","null","","display digit","<div class=""stimulus"">1</div>","null","4,8,7,2,1,3,7,5,9,2,5,7,1","","","1",""
"survey-html-form-autofocus","252","753990","0.0-44.0-19.0-20.0-27.0-21.0-23.0-25.0-22.0-25.0-26.0","ADV_EN_28","PRE","","7245.70000000298","{""recall"":""8719812487""}","recall","","","4872137592571","8719812487","2137592571","","false"
"html-keyboard-response","253","774513","0.0-45.0","ADV_EN_28","PRE","","19856.29999999702","","","<p>End of the experiment.<br/>			   		You reached level 10 and your					total score is 16.</p>					<p class=""important"">PRESS SPACE TO FINISH THE EXPERIMENT.</p>","32","","","","",""
"fullscreen","254","775530","0.0-46.0","ADV_EN_28","PRE","true","","","","","","","","","",""
