"trial_type","trial_index","time_elapsed","internal_node_id","userID","sessionType","success","rt","responses","stage","stimulus","key_press","sequence","recall","sequence_last_digits","digit","correct"
"pavlovia","0","7","0.0-0.0","INC_J_ADV_06","PRE","","","","","","","","","","",""
"fullscreen","1","3477","0.0-1.0","INC_J_ADV_06","PRE","true","","","","","","","","","",""
"survey-html-form","2","22915","0.0-2.0","INC_J_ADV_06","PRE","","18765.699999999953","{""userID"":""INC_J_ADV_06"",""type"":""PRE""}","userID","","","","","","",""
"html-keyboard-response","3","57165","0.0-3.0","INC_J_ADV_06","PRE","","33570.5","","","<p>Welcome to this task.</p>			<p>You will see a set of numbers, presented one at a time.<br/>			You need to pay attention to the numbers in the list and their order.<br/>			The list will end abruptly at any time. You will be told to enter the LAST X number of digits.</p>			<p>[Press SPACE to practice]</p>","32","","","","",""
"html-keyboard-response","4","57987","0.0-4.0","INC_J_ADV_06","PRE","","null","","fixation cross","<div class='stimulus'>+</div>","null","","","","",""
"html-keyboard-response","5","59780","0.0-5.0","INC_J_ADV_06","PRE","","null","","practice display digit","<div class=""stimulus"">9</div>","null","9,8,3","","","",""
"html-keyboard-response","6","61578","0.0-6.0","INC_J_ADV_06","PRE","","null","","practice display digit","<div class=""stimulus"">8</div>","null","9,8,3","","","",""
"html-keyboard-response","7","63391","0.0-7.0","INC_J_ADV_06","PRE","","null","","practice display digit","<div class=""stimulus"">3</div>","null","9,8,3","","","",""
"survey-html-form-autofocus","8","69444","0.0-8.0","INC_J_ADV_06","PRE","","5382.099999999977","{""recall"":""983""}","practice recall","","","983","","83","",""
"html-keyboard-response","9","92684","0.0-9.0","INC_J_ADV_06","PRE","","22570.699999999953","","","<p>The sequence was 983					and you input 983.<br/>					<span class='incorrect'>You should have written 83.</span></p>						<p>Press SPACE to continue</p>","32","","","","",""
"html-keyboard-response","10","93509","0.0-10.0","INC_J_ADV_06","PRE","","null","","fixation cross","<div class='stimulus'>+</div>","null","","","","",""
"html-keyboard-response","11","95296","0.0-11.0","INC_J_ADV_06","PRE","","null","","practice display digit","<div class=""stimulus"">4</div>","null","4,8,2,1,9","","","",""
"html-keyboard-response","12","97085","0.0-12.0","INC_J_ADV_06","PRE","","null","","practice display digit","<div class=""stimulus"">8</div>","null","4,8,2,1,9","","","",""
"html-keyboard-response","13","98878","0.0-13.0","INC_J_ADV_06","PRE","","null","","practice display digit","<div class=""stimulus"">2</div>","null","4,8,2,1,9","","","",""
"html-keyboard-response","14","100674","0.0-14.0","INC_J_ADV_06","PRE","","null","","practice display digit","<div class=""stimulus"">1</div>","null","4,8,2,1,9","","","",""
"html-keyboard-response","15","102466","0.0-15.0","INC_J_ADV_06","PRE","","null","","practice display digit","<div class=""stimulus"">9</div>","null","4,8,2,1,9","","","",""
"survey-html-form-autofocus","16","110299","0.0-16.0","INC_J_ADV_06","PRE","","7167.70000000007","{""recall"":""419""}","practice recall","","","48219","","219","",""
"html-keyboard-response","17","117459","0.0-17.0","INC_J_ADV_06","PRE","","6494.100000000093","","","<p>The sequence was 48219					and you input 419.<br/>					<span class='incorrect'>You should have written 219.</span></p>						<p>Press SPACE to continue</p>","32","","","","",""
"html-keyboard-response","18","118274","0.0-18.0","INC_J_ADV_06","PRE","","null","","fixation cross","<div class='stimulus'>+</div>","null","","","","",""
"html-keyboard-response","19","120072","0.0-19.0","INC_J_ADV_06","PRE","","null","","practice display digit","<div class=""stimulus"">5</div>","null","5,7,1,9,4,2,3,6","","","",""
"html-keyboard-response","20","121876","0.0-20.0","INC_J_ADV_06","PRE","","null","","practice display digit","<div class=""stimulus"">7</div>","null","5,7,1,9,4,2,3,6","","","",""
"html-keyboard-response","21","123670","0.0-21.0","INC_J_ADV_06","PRE","","null","","practice display digit","<div class=""stimulus"">1</div>","null","5,7,1,9,4,2,3,6","","","",""
"html-keyboard-response","22","125461","0.0-22.0","INC_J_ADV_06","PRE","","null","","practice display digit","<div class=""stimulus"">9</div>","null","5,7,1,9,4,2,3,6","","","",""
"html-keyboard-response","23","127248","0.0-23.0","INC_J_ADV_06","PRE","","null","","practice display digit","<div class=""stimulus"">4</div>","null","5,7,1,9,4,2,3,6","","","",""
"html-keyboard-response","24","129046","0.0-24.0","INC_J_ADV_06","PRE","","null","","practice display digit","<div class=""stimulus"">2</div>","null","5,7,1,9,4,2,3,6","","","",""
"html-keyboard-response","25","130857","0.0-25.0","INC_J_ADV_06","PRE","","null","","practice display digit","<div class=""stimulus"">3</div>","null","5,7,1,9,4,2,3,6","","","",""
"html-keyboard-response","26","132655","0.0-26.0","INC_J_ADV_06","PRE","","null","","practice display digit","<div class=""stimulus"">6</div>","null","5,7,1,9,4,2,3,6","","","",""
"survey-html-form-autofocus","27","142211","0.0-27.0","INC_J_ADV_06","PRE","","8889.800000000047","{""recall"":""5926""}","practice recall","","","57194236","","4236","",""
"html-keyboard-response","28","161516","0.0-28.0","INC_J_ADV_06","PRE","","18638.900000000023","","","<p>The sequence was 57194236					and you input 5926.<br/>					<span class='incorrect'>You should have written 4236.</span></p>						<p>Press SPACE to continue</p>","32","","","","",""
"html-keyboard-response","29","165572","0.0-29.0","INC_J_ADV_06","PRE","","4043.5999999999767","","","<p>That was the practice section.<br/>			<p>Now goes the official part of the task.<br/>			You won't be given any feedback on your performance.</p>			<p>R U ready?</p>			<p>[Press Y to begin]</p>","89","","","","",""
"html-keyboard-response","30","167044","0.0-30.0","INC_J_ADV_06","PRE","","null","","fixation cross","<div class='stimulus'>+</div>","null","","","","",""
"html-keyboard-response","31","168845","0.0-31.0","INC_J_ADV_06","PRE","","null","","display digit","<div class=""stimulus"">8</div>","null","8,4,6,3,4,5,9,8,4,9","","","8",""
"html-keyboard-response","32","170643","0.0-32.0","INC_J_ADV_06","PRE","","null","","display digit","<div class=""stimulus"">4</div>","null","8,4,6,3,4,5,9,8,4,9","","","4",""
"html-keyboard-response","33","172430","0.0-33.0","INC_J_ADV_06","PRE","","null","","display digit","<div class=""stimulus"">6</div>","null","8,4,6,3,4,5,9,8,4,9","","","6",""
"html-keyboard-response","34","174218","0.0-34.0","INC_J_ADV_06","PRE","","null","","display digit","<div class=""stimulus"">3</div>","null","8,4,6,3,4,5,9,8,4,9","","","3",""
"html-keyboard-response","35","176008","0.0-35.0","INC_J_ADV_06","PRE","","null","","display digit","<div class=""stimulus"">4</div>","null","8,4,6,3,4,5,9,8,4,9","","","4",""
"html-keyboard-response","36","177808","0.0-36.0","INC_J_ADV_06","PRE","","null","","display digit","<div class=""stimulus"">5</div>","null","8,4,6,3,4,5,9,8,4,9","","","5",""
"html-keyboard-response","37","179606","0.0-37.0","INC_J_ADV_06","PRE","","null","","display digit","<div class=""stimulus"">9</div>","null","8,4,6,3,4,5,9,8,4,9","","","9",""
"html-keyboard-response","38","181404","0.0-38.0","INC_J_ADV_06","PRE","","null","","display digit","<div class=""stimulus"">8</div>","null","8,4,6,3,4,5,9,8,4,9","","","8",""
"html-keyboard-response","39","183203","0.0-39.0","INC_J_ADV_06","PRE","","null","","display digit","<div class=""stimulus"">4</div>","null","8,4,6,3,4,5,9,8,4,9","","","4",""
"html-keyboard-response","40","184996","0.0-40.0","INC_J_ADV_06","PRE","","null","","display digit","<div class=""stimulus"">9</div>","null","8,4,6,3,4,5,9,8,4,9","","","9",""
"survey-html-form-autofocus","41","189235","0.0-41.0","INC_J_ADV_06","PRE","","3573.5999999998603","{""recall"":""9""}","recall","","","8463459849","9","9","","true"
"html-keyboard-response","42","190709","0.0-42.0","INC_J_ADV_06","PRE","","null","","fixation cross","<div class='stimulus'>+</div>","null","","","","",""
"html-keyboard-response","43","192522","0.0-43.0","INC_J_ADV_06","PRE","","null","","display digit","<div class=""stimulus"">8</div>","null","8,1,5,2,4,3,2,5,8,5,3,4","","","8",""
"html-keyboard-response","44","194310","0.0-44.0","INC_J_ADV_06","PRE","","null","","display digit","<div class=""stimulus"">1</div>","null","8,1,5,2,4,3,2,5,8,5,3,4","","","1",""
"html-keyboard-response","45","196097","0.0-45.0","INC_J_ADV_06","PRE","","null","","display digit","<div class=""stimulus"">5</div>","null","8,1,5,2,4,3,2,5,8,5,3,4","","","5",""
"html-keyboard-response","46","197896","0.0-46.0","INC_J_ADV_06","PRE","","null","","display digit","<div class=""stimulus"">2</div>","null","8,1,5,2,4,3,2,5,8,5,3,4","","","2",""
"html-keyboard-response","47","199693","0.0-47.0","INC_J_ADV_06","PRE","","null","","display digit","<div class=""stimulus"">4</div>","null","8,1,5,2,4,3,2,5,8,5,3,4","","","4",""
"html-keyboard-response","48","201492","0.0-48.0","INC_J_ADV_06","PRE","","null","","display digit","<div class=""stimulus"">3</div>","null","8,1,5,2,4,3,2,5,8,5,3,4","","","3",""
"html-keyboard-response","49","203280","0.0-49.0","INC_J_ADV_06","PRE","","null","","display digit","<div class=""stimulus"">2</div>","null","8,1,5,2,4,3,2,5,8,5,3,4","","","2",""
"html-keyboard-response","50","205079","0.0-50.0","INC_J_ADV_06","PRE","","null","","display digit","<div class=""stimulus"">5</div>","null","8,1,5,2,4,3,2,5,8,5,3,4","","","5",""
"html-keyboard-response","51","206876","0.0-51.0","INC_J_ADV_06","PRE","","null","","display digit","<div class=""stimulus"">8</div>","null","8,1,5,2,4,3,2,5,8,5,3,4","","","8",""
"html-keyboard-response","52","208678","0.0-52.0","INC_J_ADV_06","PRE","","null","","display digit","<div class=""stimulus"">5</div>","null","8,1,5,2,4,3,2,5,8,5,3,4","","","5",""
"html-keyboard-response","53","210468","0.0-53.0","INC_J_ADV_06","PRE","","null","","display digit","<div class=""stimulus"">3</div>","null","8,1,5,2,4,3,2,5,8,5,3,4","","","3",""
"html-keyboard-response","54","212264","0.0-54.0","INC_J_ADV_06","PRE","","null","","display digit","<div class=""stimulus"">4</div>","null","8,1,5,2,4,3,2,5,8,5,3,4","","","4",""
"survey-html-form-autofocus","55","216811","0.0-55.0","INC_J_ADV_06","PRE","","3875.0999999998603","{""recall"":""4""}","recall","","","815243258534","4","4","","true"
"html-keyboard-response","56","218286","0.0-56.0-0.0","INC_J_ADV_06","PRE","","null","","fixation cross","<div class='stimulus'>+</div>","null","","","","",""
"html-keyboard-response","57","220078","0.0-56.0-1.0","INC_J_ADV_06","PRE","","null","","display digit","<div class=""stimulus"">5</div>","null","5,0,9,4,2,5","","","5",""
"html-keyboard-response","58","221880","0.0-56.0-2.0","INC_J_ADV_06","PRE","","null","","display digit","<div class=""stimulus"">0</div>","null","5,0,9,4,2,5","","","0",""
"html-keyboard-response","59","223672","0.0-56.0-3.0","INC_J_ADV_06","PRE","","null","","display digit","<div class=""stimulus"">9</div>","null","5,0,9,4,2,5","","","9",""
"html-keyboard-response","60","225473","0.0-56.0-4.0","INC_J_ADV_06","PRE","","null","","display digit","<div class=""stimulus"">4</div>","null","5,0,9,4,2,5","","","4",""
"html-keyboard-response","61","227275","0.0-56.0-5.0","INC_J_ADV_06","PRE","","null","","display digit","<div class=""stimulus"">2</div>","null","5,0,9,4,2,5","","","2",""
"html-keyboard-response","62","229077","0.0-56.0-6.0","INC_J_ADV_06","PRE","","null","","display digit","<div class=""stimulus"">5</div>","null","5,0,9,4,2,5","","","5",""
"survey-html-form-autofocus","63","232875","0.0-56.0-7.0","INC_J_ADV_06","PRE","","3132.5999999998603","{""recall"":""25""}","recall","","","509425","25","25","","true"
"html-keyboard-response","64","234358","0.0-56.0-8.0","INC_J_ADV_06","PRE","","null","","fixation cross","<div class='stimulus'>+</div>","null","","","","",""
"html-keyboard-response","65","236163","0.0-56.0-9.0","INC_J_ADV_06","PRE","","null","","display digit","<div class=""stimulus"">5</div>","null","5,1","","","5",""
"html-keyboard-response","66","237963","0.0-56.0-10.0","INC_J_ADV_06","PRE","","null","","display digit","<div class=""stimulus"">1</div>","null","5,1","","","1",""
"survey-html-form-autofocus","67","241084","0.0-56.0-11.0","INC_J_ADV_06","PRE","","2449.399999999907","{""recall"":""51""}","recall","","","51","51","51","","true"
"html-keyboard-response","68","242561","0.0-56.0-12.0-0.0","INC_J_ADV_06","PRE","","null","","fixation cross","<div class='stimulus'>+</div>","null","","","","",""
"html-keyboard-response","69","244366","0.0-56.0-12.0-1.0","INC_J_ADV_06","PRE","","null","","display digit","<div class=""stimulus"">4</div>","null","4,7,0,8,0,7,4,0,8,4","","","4",""
"html-keyboard-response","70","246153","0.0-56.0-12.0-2.0","INC_J_ADV_06","PRE","","null","","display digit","<div class=""stimulus"">7</div>","null","4,7,0,8,0,7,4,0,8,4","","","7",""
"html-keyboard-response","71","247961","0.0-56.0-12.0-3.0","INC_J_ADV_06","PRE","","null","","display digit","<div class=""stimulus"">0</div>","null","4,7,0,8,0,7,4,0,8,4","","","0",""
"html-keyboard-response","72","249765","0.0-56.0-12.0-4.0","INC_J_ADV_06","PRE","","null","","display digit","<div class=""stimulus"">8</div>","null","4,7,0,8,0,7,4,0,8,4","","","8",""
"html-keyboard-response","73","251555","0.0-56.0-12.0-5.0","INC_J_ADV_06","PRE","","null","","display digit","<div class=""stimulus"">0</div>","null","4,7,0,8,0,7,4,0,8,4","","","0",""
"html-keyboard-response","74","253363","0.0-56.0-12.0-6.0","INC_J_ADV_06","PRE","","null","","display digit","<div class=""stimulus"">7</div>","null","4,7,0,8,0,7,4,0,8,4","","","7",""
"html-keyboard-response","75","255161","0.0-56.0-12.0-7.0","INC_J_ADV_06","PRE","","null","","display digit","<div class=""stimulus"">4</div>","null","4,7,0,8,0,7,4,0,8,4","","","4",""
"html-keyboard-response","76","256952","0.0-56.0-12.0-8.0","INC_J_ADV_06","PRE","","null","","display digit","<div class=""stimulus"">0</div>","null","4,7,0,8,0,7,4,0,8,4","","","0",""
"html-keyboard-response","77","258744","0.0-56.0-12.0-9.0","INC_J_ADV_06","PRE","","null","","display digit","<div class=""stimulus"">8</div>","null","4,7,0,8,0,7,4,0,8,4","","","8",""
"html-keyboard-response","78","260536","0.0-56.0-12.0-10.0","INC_J_ADV_06","PRE","","null","","display digit","<div class=""stimulus"">4</div>","null","4,7,0,8,0,7,4,0,8,4","","","4",""
"survey-html-form-autofocus","79","265756","0.0-56.0-12.0-11.0","INC_J_ADV_06","PRE","","4542.800000000047","{""recall"":""084""}","recall","","","4708074084","084","084","","true"
"html-keyboard-response","80","267237","0.0-56.0-12.0-12.0","INC_J_ADV_06","PRE","","null","","fixation cross","<div class='stimulus'>+</div>","null","","","","",""
"html-keyboard-response","81","269045","0.0-56.0-12.0-13.0","INC_J_ADV_06","PRE","","null","","display digit","<div class=""stimulus"">3</div>","null","3,6,3,4,1","","","3",""
"html-keyboard-response","82","270845","0.0-56.0-12.0-14.0","INC_J_ADV_06","PRE","","null","","display digit","<div class=""stimulus"">6</div>","null","3,6,3,4,1","","","6",""
"html-keyboard-response","83","272637","0.0-56.0-12.0-15.0","INC_J_ADV_06","PRE","","null","","display digit","<div class=""stimulus"">3</div>","null","3,6,3,4,1","","","3",""
"html-keyboard-response","84","274425","0.0-56.0-12.0-16.0","INC_J_ADV_06","PRE","","null","","display digit","<div class=""stimulus"">4</div>","null","3,6,3,4,1","","","4",""
"html-keyboard-response","85","276222","0.0-56.0-12.0-17.0","INC_J_ADV_06","PRE","","null","","display digit","<div class=""stimulus"">1</div>","null","3,6,3,4,1","","","1",""
"survey-html-form-autofocus","86","282876","0.0-56.0-12.0-18.0","INC_J_ADV_06","PRE","","5985.800000000047","{""recall"":""341""}","recall","","","36341","341","341","","true"
"html-keyboard-response","87","284352","0.0-56.0-12.0-19.0-0.0","INC_J_ADV_06","PRE","","null","","fixation cross","<div class='stimulus'>+</div>","null","","","","",""
"html-keyboard-response","88","286160","0.0-56.0-12.0-19.0-1.0","INC_J_ADV_06","PRE","","null","","display digit","<div class=""stimulus"">9</div>","null","9,3,4,6,7,1,6,1,9,7,3","","","9",""
"html-keyboard-response","89","287949","0.0-56.0-12.0-19.0-2.0","INC_J_ADV_06","PRE","","null","","display digit","<div class=""stimulus"">3</div>","null","9,3,4,6,7,1,6,1,9,7,3","","","3",""
"html-keyboard-response","90","289754","0.0-56.0-12.0-19.0-3.0","INC_J_ADV_06","PRE","","null","","display digit","<div class=""stimulus"">4</div>","null","9,3,4,6,7,1,6,1,9,7,3","","","4",""
"html-keyboard-response","91","291553","0.0-56.0-12.0-19.0-4.0","INC_J_ADV_06","PRE","","null","","display digit","<div class=""stimulus"">6</div>","null","9,3,4,6,7,1,6,1,9,7,3","","","6",""
"html-keyboard-response","92","293358","0.0-56.0-12.0-19.0-5.0","INC_J_ADV_06","PRE","","null","","display digit","<div class=""stimulus"">7</div>","null","9,3,4,6,7,1,6,1,9,7,3","","","7",""
"html-keyboard-response","93","295144","0.0-56.0-12.0-19.0-6.0","INC_J_ADV_06","PRE","","null","","display digit","<div class=""stimulus"">1</div>","null","9,3,4,6,7,1,6,1,9,7,3","","","1",""
"html-keyboard-response","94","296937","0.0-56.0-12.0-19.0-7.0","INC_J_ADV_06","PRE","","null","","display digit","<div class=""stimulus"">6</div>","null","9,3,4,6,7,1,6,1,9,7,3","","","6",""
"html-keyboard-response","95","298727","0.0-56.0-12.0-19.0-8.0","INC_J_ADV_06","PRE","","null","","display digit","<div class=""stimulus"">1</div>","null","9,3,4,6,7,1,6,1,9,7,3","","","1",""
"html-keyboard-response","96","300526","0.0-56.0-12.0-19.0-9.0","INC_J_ADV_06","PRE","","null","","display digit","<div class=""stimulus"">9</div>","null","9,3,4,6,7,1,6,1,9,7,3","","","9",""
"html-keyboard-response","97","302316","0.0-56.0-12.0-19.0-10.0","INC_J_ADV_06","PRE","","null","","display digit","<div class=""stimulus"">7</div>","null","9,3,4,6,7,1,6,1,9,7,3","","","7",""
"html-keyboard-response","98","304113","0.0-56.0-12.0-19.0-11.0","INC_J_ADV_06","PRE","","null","","display digit","<div class=""stimulus"">3</div>","null","9,3,4,6,7,1,6,1,9,7,3","","","3",""
"survey-html-form-autofocus","99","310339","0.0-56.0-12.0-19.0-12.0","INC_J_ADV_06","PRE","","5560.40000000014","{""recall"":""1973""}","recall","","","93467161973","1973","1973","","true"
"html-keyboard-response","100","311811","0.0-56.0-12.0-19.0-13.0","INC_J_ADV_06","PRE","","null","","fixation cross","<div class='stimulus'>+</div>","null","","","","",""
"html-keyboard-response","101","313610","0.0-56.0-12.0-19.0-14.0","INC_J_ADV_06","PRE","","null","","display digit","<div class=""stimulus"">7</div>","null","7,0,6,8,1,4,2,0,9","","","7",""
"html-keyboard-response","102","315400","0.0-56.0-12.0-19.0-15.0","INC_J_ADV_06","PRE","","null","","display digit","<div class=""stimulus"">0</div>","null","7,0,6,8,1,4,2,0,9","","","0",""
"html-keyboard-response","103","317193","0.0-56.0-12.0-19.0-16.0","INC_J_ADV_06","PRE","","null","","display digit","<div class=""stimulus"">6</div>","null","7,0,6,8,1,4,2,0,9","","","6",""
"html-keyboard-response","104","318990","0.0-56.0-12.0-19.0-17.0","INC_J_ADV_06","PRE","","null","","display digit","<div class=""stimulus"">8</div>","null","7,0,6,8,1,4,2,0,9","","","8",""
"html-keyboard-response","105","320776","0.0-56.0-12.0-19.0-18.0","INC_J_ADV_06","PRE","","null","","display digit","<div class=""stimulus"">1</div>","null","7,0,6,8,1,4,2,0,9","","","1",""
"html-keyboard-response","106","322574","0.0-56.0-12.0-19.0-19.0","INC_J_ADV_06","PRE","","null","","display digit","<div class=""stimulus"">4</div>","null","7,0,6,8,1,4,2,0,9","","","4",""
"html-keyboard-response","107","324367","0.0-56.0-12.0-19.0-20.0","INC_J_ADV_06","PRE","","null","","display digit","<div class=""stimulus"">2</div>","null","7,0,6,8,1,4,2,0,9","","","2",""
"html-keyboard-response","108","326154","0.0-56.0-12.0-19.0-21.0","INC_J_ADV_06","PRE","","null","","display digit","<div class=""stimulus"">0</div>","null","7,0,6,8,1,4,2,0,9","","","0",""
"html-keyboard-response","109","327960","0.0-56.0-12.0-19.0-22.0","INC_J_ADV_06","PRE","","null","","display digit","<div class=""stimulus"">9</div>","null","7,0,6,8,1,4,2,0,9","","","9",""
"survey-html-form-autofocus","110","334267","0.0-56.0-12.0-19.0-23.0","INC_J_ADV_06","PRE","","5641.100000000093","{""recall"":""4209""}","recall","","","706814209","4209","4209","","true"
"html-keyboard-response","111","335749","0.0-56.0-12.0-19.0-24.0-0.0","INC_J_ADV_06","PRE","","null","","fixation cross","<div class='stimulus'>+</div>","null","","","","",""
"html-keyboard-response","112","337562","0.0-56.0-12.0-19.0-24.0-1.0","INC_J_ADV_06","PRE","","null","","display digit","<div class=""stimulus"">6</div>","null","6,1,9,5,2,0,2,8","","","6",""
"html-keyboard-response","113","339361","0.0-56.0-12.0-19.0-24.0-2.0","INC_J_ADV_06","PRE","","null","","display digit","<div class=""stimulus"">1</div>","null","6,1,9,5,2,0,2,8","","","1",""
"html-keyboard-response","114","341165","0.0-56.0-12.0-19.0-24.0-3.0","INC_J_ADV_06","PRE","","null","","display digit","<div class=""stimulus"">9</div>","null","6,1,9,5,2,0,2,8","","","9",""
"html-keyboard-response","115","342951","0.0-56.0-12.0-19.0-24.0-4.0","INC_J_ADV_06","PRE","","null","","display digit","<div class=""stimulus"">5</div>","null","6,1,9,5,2,0,2,8","","","5",""
"html-keyboard-response","116","344757","0.0-56.0-12.0-19.0-24.0-5.0","INC_J_ADV_06","PRE","","null","","display digit","<div class=""stimulus"">2</div>","null","6,1,9,5,2,0,2,8","","","2",""
"html-keyboard-response","117","346554","0.0-56.0-12.0-19.0-24.0-6.0","INC_J_ADV_06","PRE","","null","","display digit","<div class=""stimulus"">0</div>","null","6,1,9,5,2,0,2,8","","","0",""
"html-keyboard-response","118","348342","0.0-56.0-12.0-19.0-24.0-7.0","INC_J_ADV_06","PRE","","null","","display digit","<div class=""stimulus"">2</div>","null","6,1,9,5,2,0,2,8","","","2",""
"html-keyboard-response","119","350140","0.0-56.0-12.0-19.0-24.0-8.0","INC_J_ADV_06","PRE","","null","","display digit","<div class=""stimulus"">8</div>","null","6,1,9,5,2,0,2,8","","","8",""
"survey-html-form-autofocus","120","360643","0.0-56.0-12.0-19.0-24.0-9.0","INC_J_ADV_06","PRE","","9837.40000000014","{""recall"":""52028""}","recall","","","61952028","52028","52028","","true"
"html-keyboard-response","121","362114","0.0-56.0-12.0-19.0-24.0-10.0","INC_J_ADV_06","PRE","","null","","fixation cross","<div class='stimulus'>+</div>","null","","","","",""
"html-keyboard-response","122","363913","0.0-56.0-12.0-19.0-24.0-11.0","INC_J_ADV_06","PRE","","null","","display digit","<div class=""stimulus"">1</div>","null","1,6,0,6,9,5,3,7,6,3,0","","","1",""
"html-keyboard-response","123","365710","0.0-56.0-12.0-19.0-24.0-12.0","INC_J_ADV_06","PRE","","null","","display digit","<div class=""stimulus"">6</div>","null","1,6,0,6,9,5,3,7,6,3,0","","","6",""
"html-keyboard-response","124","367517","0.0-56.0-12.0-19.0-24.0-13.0","INC_J_ADV_06","PRE","","null","","display digit","<div class=""stimulus"">0</div>","null","1,6,0,6,9,5,3,7,6,3,0","","","0",""
"html-keyboard-response","125","369311","0.0-56.0-12.0-19.0-24.0-14.0","INC_J_ADV_06","PRE","","null","","display digit","<div class=""stimulus"">6</div>","null","1,6,0,6,9,5,3,7,6,3,0","","","6",""
"html-keyboard-response","126","371118","0.0-56.0-12.0-19.0-24.0-15.0","INC_J_ADV_06","PRE","","null","","display digit","<div class=""stimulus"">9</div>","null","1,6,0,6,9,5,3,7,6,3,0","","","9",""
"html-keyboard-response","127","372918","0.0-56.0-12.0-19.0-24.0-16.0","INC_J_ADV_06","PRE","","null","","display digit","<div class=""stimulus"">5</div>","null","1,6,0,6,9,5,3,7,6,3,0","","","5",""
"html-keyboard-response","128","374704","0.0-56.0-12.0-19.0-24.0-17.0","INC_J_ADV_06","PRE","","null","","display digit","<div class=""stimulus"">3</div>","null","1,6,0,6,9,5,3,7,6,3,0","","","3",""
"html-keyboard-response","129","376502","0.0-56.0-12.0-19.0-24.0-18.0","INC_J_ADV_06","PRE","","null","","display digit","<div class=""stimulus"">7</div>","null","1,6,0,6,9,5,3,7,6,3,0","","","7",""
"html-keyboard-response","130","378311","0.0-56.0-12.0-19.0-24.0-19.0","INC_J_ADV_06","PRE","","null","","display digit","<div class=""stimulus"">6</div>","null","1,6,0,6,9,5,3,7,6,3,0","","","6",""
"html-keyboard-response","131","380098","0.0-56.0-12.0-19.0-24.0-20.0","INC_J_ADV_06","PRE","","null","","display digit","<div class=""stimulus"">3</div>","null","1,6,0,6,9,5,3,7,6,3,0","","","3",""
"html-keyboard-response","132","381890","0.0-56.0-12.0-19.0-24.0-21.0","INC_J_ADV_06","PRE","","null","","display digit","<div class=""stimulus"">0</div>","null","1,6,0,6,9,5,3,7,6,3,0","","","0",""
"survey-html-form-autofocus","133","394092","0.0-56.0-12.0-19.0-24.0-22.0","INC_J_ADV_06","PRE","","11536.59999999986","{""recall"":""37630""}","recall","","","16069537630","37630","37630","","true"
"html-keyboard-response","134","395562","0.0-56.0-12.0-19.0-24.0-23.0-0.0","INC_J_ADV_06","PRE","","null","","fixation cross","<div class='stimulus'>+</div>","null","","","","",""
"html-keyboard-response","135","397358","0.0-56.0-12.0-19.0-24.0-23.0-1.0","INC_J_ADV_06","PRE","","null","","display digit","<div class=""stimulus"">6</div>","null","6,0,4,0,6,4,8,7,2,9,1,7,6","","","6",""
"html-keyboard-response","136","399149","0.0-56.0-12.0-19.0-24.0-23.0-2.0","INC_J_ADV_06","PRE","","null","","display digit","<div class=""stimulus"">0</div>","null","6,0,4,0,6,4,8,7,2,9,1,7,6","","","0",""
"html-keyboard-response","137","400944","0.0-56.0-12.0-19.0-24.0-23.0-3.0","INC_J_ADV_06","PRE","","null","","display digit","<div class=""stimulus"">4</div>","null","6,0,4,0,6,4,8,7,2,9,1,7,6","","","4",""
"html-keyboard-response","138","402733","0.0-56.0-12.0-19.0-24.0-23.0-4.0","INC_J_ADV_06","PRE","","null","","display digit","<div class=""stimulus"">0</div>","null","6,0,4,0,6,4,8,7,2,9,1,7,6","","","0",""
"html-keyboard-response","139","404528","0.0-56.0-12.0-19.0-24.0-23.0-5.0","INC_J_ADV_06","PRE","","null","","display digit","<div class=""stimulus"">6</div>","null","6,0,4,0,6,4,8,7,2,9,1,7,6","","","6",""
"html-keyboard-response","140","406329","0.0-56.0-12.0-19.0-24.0-23.0-6.0","INC_J_ADV_06","PRE","","null","","display digit","<div class=""stimulus"">4</div>","null","6,0,4,0,6,4,8,7,2,9,1,7,6","","","4",""
"html-keyboard-response","141","408124","0.0-56.0-12.0-19.0-24.0-23.0-7.0","INC_J_ADV_06","PRE","","null","","display digit","<div class=""stimulus"">8</div>","null","6,0,4,0,6,4,8,7,2,9,1,7,6","","","8",""
"html-keyboard-response","142","409916","0.0-56.0-12.0-19.0-24.0-23.0-8.0","INC_J_ADV_06","PRE","","null","","display digit","<div class=""stimulus"">7</div>","null","6,0,4,0,6,4,8,7,2,9,1,7,6","","","7",""
"html-keyboard-response","143","411712","0.0-56.0-12.0-19.0-24.0-23.0-9.0","INC_J_ADV_06","PRE","","null","","display digit","<div class=""stimulus"">2</div>","null","6,0,4,0,6,4,8,7,2,9,1,7,6","","","2",""
"html-keyboard-response","144","413520","0.0-56.0-12.0-19.0-24.0-23.0-10.0","INC_J_ADV_06","PRE","","null","","display digit","<div class=""stimulus"">9</div>","null","6,0,4,0,6,4,8,7,2,9,1,7,6","","","9",""
"html-keyboard-response","145","415314","0.0-56.0-12.0-19.0-24.0-23.0-11.0","INC_J_ADV_06","PRE","","null","","display digit","<div class=""stimulus"">1</div>","null","6,0,4,0,6,4,8,7,2,9,1,7,6","","","1",""
"html-keyboard-response","146","417113","0.0-56.0-12.0-19.0-24.0-23.0-12.0","INC_J_ADV_06","PRE","","null","","display digit","<div class=""stimulus"">7</div>","null","6,0,4,0,6,4,8,7,2,9,1,7,6","","","7",""
"html-keyboard-response","147","418924","0.0-56.0-12.0-19.0-24.0-23.0-13.0","INC_J_ADV_06","PRE","","null","","display digit","<div class=""stimulus"">6</div>","null","6,0,4,0,6,4,8,7,2,9,1,7,6","","","6",""
"survey-html-form-autofocus","148","431804","0.0-56.0-12.0-19.0-24.0-23.0-14.0","INC_J_ADV_06","PRE","","12207","{""recall"":""729176""}","recall","","","6040648729176","729176","729176","","true"
"html-keyboard-response","149","433276","0.0-56.0-12.0-19.0-24.0-23.0-15.0","INC_J_ADV_06","PRE","","null","","fixation cross","<div class='stimulus'>+</div>","null","","","","",""
"html-keyboard-response","150","435066","0.0-56.0-12.0-19.0-24.0-23.0-16.0","INC_J_ADV_06","PRE","","null","","display digit","<div class=""stimulus"">8</div>","null","8,2,8,6,8,2,5,7,6,4,6,0","","","8",""
"html-keyboard-response","151","436856","0.0-56.0-12.0-19.0-24.0-23.0-17.0","INC_J_ADV_06","PRE","","null","","display digit","<div class=""stimulus"">2</div>","null","8,2,8,6,8,2,5,7,6,4,6,0","","","2",""
"html-keyboard-response","152","438645","0.0-56.0-12.0-19.0-24.0-23.0-18.0","INC_J_ADV_06","PRE","","null","","display digit","<div class=""stimulus"">8</div>","null","8,2,8,6,8,2,5,7,6,4,6,0","","","8",""
"html-keyboard-response","153","440445","0.0-56.0-12.0-19.0-24.0-23.0-19.0","INC_J_ADV_06","PRE","","null","","display digit","<div class=""stimulus"">6</div>","null","8,2,8,6,8,2,5,7,6,4,6,0","","","6",""
"html-keyboard-response","154","442239","0.0-56.0-12.0-19.0-24.0-23.0-20.0","INC_J_ADV_06","PRE","","null","","display digit","<div class=""stimulus"">8</div>","null","8,2,8,6,8,2,5,7,6,4,6,0","","","8",""
"html-keyboard-response","155","444042","0.0-56.0-12.0-19.0-24.0-23.0-21.0","INC_J_ADV_06","PRE","","null","","display digit","<div class=""stimulus"">2</div>","null","8,2,8,6,8,2,5,7,6,4,6,0","","","2",""
"html-keyboard-response","156","445839","0.0-56.0-12.0-19.0-24.0-23.0-22.0","INC_J_ADV_06","PRE","","null","","display digit","<div class=""stimulus"">5</div>","null","8,2,8,6,8,2,5,7,6,4,6,0","","","5",""
"html-keyboard-response","157","447645","0.0-56.0-12.0-19.0-24.0-23.0-23.0","INC_J_ADV_06","PRE","","null","","display digit","<div class=""stimulus"">7</div>","null","8,2,8,6,8,2,5,7,6,4,6,0","","","7",""
"html-keyboard-response","158","449434","0.0-56.0-12.0-19.0-24.0-23.0-24.0","INC_J_ADV_06","PRE","","null","","display digit","<div class=""stimulus"">6</div>","null","8,2,8,6,8,2,5,7,6,4,6,0","","","6",""
"html-keyboard-response","159","451224","0.0-56.0-12.0-19.0-24.0-23.0-25.0","INC_J_ADV_06","PRE","","null","","display digit","<div class=""stimulus"">4</div>","null","8,2,8,6,8,2,5,7,6,4,6,0","","","4",""
"html-keyboard-response","160","453027","0.0-56.0-12.0-19.0-24.0-23.0-26.0","INC_J_ADV_06","PRE","","null","","display digit","<div class=""stimulus"">6</div>","null","8,2,8,6,8,2,5,7,6,4,6,0","","","6",""
"html-keyboard-response","161","454835","0.0-56.0-12.0-19.0-24.0-23.0-27.0","INC_J_ADV_06","PRE","","null","","display digit","<div class=""stimulus"">0</div>","null","8,2,8,6,8,2,5,7,6,4,6,0","","","0",""
"survey-html-form-autofocus","162","466708","0.0-56.0-12.0-19.0-24.0-23.0-28.0","INC_J_ADV_06","PRE","","11207.5","{""recall"":""576460""}","recall","","","828682576460","576460","576460","","true"
"html-keyboard-response","163","468191","0.0-56.0-12.0-19.0-24.0-23.0-29.0-0.0","INC_J_ADV_06","PRE","","null","","fixation cross","<div class='stimulus'>+</div>","null","","","","",""
"html-keyboard-response","164","469994","0.0-56.0-12.0-19.0-24.0-23.0-29.0-1.0","INC_J_ADV_06","PRE","","null","","display digit","<div class=""stimulus"">4</div>","null","4,7,5,7,8,3,6","","","4",""
"html-keyboard-response","165","471782","0.0-56.0-12.0-19.0-24.0-23.0-29.0-2.0","INC_J_ADV_06","PRE","","null","","display digit","<div class=""stimulus"">7</div>","null","4,7,5,7,8,3,6","","","7",""
"html-keyboard-response","166","473569","0.0-56.0-12.0-19.0-24.0-23.0-29.0-3.0","INC_J_ADV_06","PRE","","null","","display digit","<div class=""stimulus"">5</div>","null","4,7,5,7,8,3,6","","","5",""
"html-keyboard-response","167","475363","0.0-56.0-12.0-19.0-24.0-23.0-29.0-4.0","INC_J_ADV_06","PRE","","null","","display digit","<div class=""stimulus"">7</div>","null","4,7,5,7,8,3,6","","","7",""
"html-keyboard-response","168","477164","0.0-56.0-12.0-19.0-24.0-23.0-29.0-5.0","INC_J_ADV_06","PRE","","null","","display digit","<div class=""stimulus"">8</div>","null","4,7,5,7,8,3,6","","","8",""
"html-keyboard-response","169","478953","0.0-56.0-12.0-19.0-24.0-23.0-29.0-6.0","INC_J_ADV_06","PRE","","null","","display digit","<div class=""stimulus"">3</div>","null","4,7,5,7,8,3,6","","","3",""
"html-keyboard-response","170","480754","0.0-56.0-12.0-19.0-24.0-23.0-29.0-7.0","INC_J_ADV_06","PRE","","null","","display digit","<div class=""stimulus"">6</div>","null","4,7,5,7,8,3,6","","","6",""
"survey-html-form-autofocus","171","495411","0.0-56.0-12.0-19.0-24.0-23.0-29.0-8.0","INC_J_ADV_06","PRE","","13992.300000000047","{""recall"":""4757836""}","recall","","","4757836","4757836","4757836","","true"
"html-keyboard-response","172","496880","0.0-56.0-12.0-19.0-24.0-23.0-29.0-9.0","INC_J_ADV_06","PRE","","null","","fixation cross","<div class='stimulus'>+</div>","null","","","","",""
"html-keyboard-response","173","498679","0.0-56.0-12.0-19.0-24.0-23.0-29.0-10.0","INC_J_ADV_06","PRE","","null","","display digit","<div class=""stimulus"">2</div>","null","2,3,5,0,8,3,9,1,4,8,0,5","","","2",""
"html-keyboard-response","174","500466","0.0-56.0-12.0-19.0-24.0-23.0-29.0-11.0","INC_J_ADV_06","PRE","","null","","display digit","<div class=""stimulus"">3</div>","null","2,3,5,0,8,3,9,1,4,8,0,5","","","3",""
"html-keyboard-response","175","502256","0.0-56.0-12.0-19.0-24.0-23.0-29.0-12.0","INC_J_ADV_06","PRE","","null","","display digit","<div class=""stimulus"">5</div>","null","2,3,5,0,8,3,9,1,4,8,0,5","","","5",""
"html-keyboard-response","176","504071","0.0-56.0-12.0-19.0-24.0-23.0-29.0-13.0","INC_J_ADV_06","PRE","","null","","display digit","<div class=""stimulus"">0</div>","null","2,3,5,0,8,3,9,1,4,8,0,5","","","0",""
"html-keyboard-response","177","505859","0.0-56.0-12.0-19.0-24.0-23.0-29.0-14.0","INC_J_ADV_06","PRE","","null","","display digit","<div class=""stimulus"">8</div>","null","2,3,5,0,8,3,9,1,4,8,0,5","","","8",""
"html-keyboard-response","178","507655","0.0-56.0-12.0-19.0-24.0-23.0-29.0-15.0","INC_J_ADV_06","PRE","","null","","display digit","<div class=""stimulus"">3</div>","null","2,3,5,0,8,3,9,1,4,8,0,5","","","3",""
"html-keyboard-response","179","509453","0.0-56.0-12.0-19.0-24.0-23.0-29.0-16.0","INC_J_ADV_06","PRE","","null","","display digit","<div class=""stimulus"">9</div>","null","2,3,5,0,8,3,9,1,4,8,0,5","","","9",""
"html-keyboard-response","180","511246","0.0-56.0-12.0-19.0-24.0-23.0-29.0-17.0","INC_J_ADV_06","PRE","","null","","display digit","<div class=""stimulus"">1</div>","null","2,3,5,0,8,3,9,1,4,8,0,5","","","1",""
"html-keyboard-response","181","513034","0.0-56.0-12.0-19.0-24.0-23.0-29.0-18.0","INC_J_ADV_06","PRE","","null","","display digit","<div class=""stimulus"">4</div>","null","2,3,5,0,8,3,9,1,4,8,0,5","","","4",""
"html-keyboard-response","182","514837","0.0-56.0-12.0-19.0-24.0-23.0-29.0-19.0","INC_J_ADV_06","PRE","","null","","display digit","<div class=""stimulus"">8</div>","null","2,3,5,0,8,3,9,1,4,8,0,5","","","8",""
"html-keyboard-response","183","516624","0.0-56.0-12.0-19.0-24.0-23.0-29.0-20.0","INC_J_ADV_06","PRE","","null","","display digit","<div class=""stimulus"">0</div>","null","2,3,5,0,8,3,9,1,4,8,0,5","","","0",""
"html-keyboard-response","184","518429","0.0-56.0-12.0-19.0-24.0-23.0-29.0-21.0","INC_J_ADV_06","PRE","","null","","display digit","<div class=""stimulus"">5</div>","null","2,3,5,0,8,3,9,1,4,8,0,5","","","5",""
"survey-html-form-autofocus","185","532940","0.0-56.0-12.0-19.0-24.0-23.0-29.0-22.0","INC_J_ADV_06","PRE","","13832.300000000047","{""recall"":""3914805""}","recall","","","235083914805","3914805","3914805","","true"
"html-keyboard-response","186","534414","0.0-56.0-12.0-19.0-24.0-23.0-29.0-23.0-0.0","INC_J_ADV_06","PRE","","null","","fixation cross","<div class='stimulus'>+</div>","null","","","","",""
"html-keyboard-response","187","536201","0.0-56.0-12.0-19.0-24.0-23.0-29.0-23.0-1.0","INC_J_ADV_06","PRE","","null","","display digit","<div class=""stimulus"">3</div>","null","3,1,6,4,5,9,4,8,0,7,6,4","","","3",""
"html-keyboard-response","188","537989","0.0-56.0-12.0-19.0-24.0-23.0-29.0-23.0-2.0","INC_J_ADV_06","PRE","","null","","display digit","<div class=""stimulus"">1</div>","null","3,1,6,4,5,9,4,8,0,7,6,4","","","1",""
"html-keyboard-response","189","539794","0.0-56.0-12.0-19.0-24.0-23.0-29.0-23.0-3.0","INC_J_ADV_06","PRE","","null","","display digit","<div class=""stimulus"">6</div>","null","3,1,6,4,5,9,4,8,0,7,6,4","","","6",""
"html-keyboard-response","190","541588","0.0-56.0-12.0-19.0-24.0-23.0-29.0-23.0-4.0","INC_J_ADV_06","PRE","","null","","display digit","<div class=""stimulus"">4</div>","null","3,1,6,4,5,9,4,8,0,7,6,4","","","4",""
"html-keyboard-response","191","543384","0.0-56.0-12.0-19.0-24.0-23.0-29.0-23.0-5.0","INC_J_ADV_06","PRE","","null","","display digit","<div class=""stimulus"">5</div>","null","3,1,6,4,5,9,4,8,0,7,6,4","","","5",""
"html-keyboard-response","192","545183","0.0-56.0-12.0-19.0-24.0-23.0-29.0-23.0-6.0","INC_J_ADV_06","PRE","","null","","display digit","<div class=""stimulus"">9</div>","null","3,1,6,4,5,9,4,8,0,7,6,4","","","9",""
"html-keyboard-response","193","546975","0.0-56.0-12.0-19.0-24.0-23.0-29.0-23.0-7.0","INC_J_ADV_06","PRE","","null","","display digit","<div class=""stimulus"">4</div>","null","3,1,6,4,5,9,4,8,0,7,6,4","","","4",""
"html-keyboard-response","194","548769","0.0-56.0-12.0-19.0-24.0-23.0-29.0-23.0-8.0","INC_J_ADV_06","PRE","","null","","display digit","<div class=""stimulus"">8</div>","null","3,1,6,4,5,9,4,8,0,7,6,4","","","8",""
"html-keyboard-response","195","550579","0.0-56.0-12.0-19.0-24.0-23.0-29.0-23.0-9.0","INC_J_ADV_06","PRE","","null","","display digit","<div class=""stimulus"">0</div>","null","3,1,6,4,5,9,4,8,0,7,6,4","","","0",""
"html-keyboard-response","196","552372","0.0-56.0-12.0-19.0-24.0-23.0-29.0-23.0-10.0","INC_J_ADV_06","PRE","","null","","display digit","<div class=""stimulus"">7</div>","null","3,1,6,4,5,9,4,8,0,7,6,4","","","7",""
"html-keyboard-response","197","554169","0.0-56.0-12.0-19.0-24.0-23.0-29.0-23.0-11.0","INC_J_ADV_06","PRE","","null","","display digit","<div class=""stimulus"">6</div>","null","3,1,6,4,5,9,4,8,0,7,6,4","","","6",""
"html-keyboard-response","198","555959","0.0-56.0-12.0-19.0-24.0-23.0-29.0-23.0-12.0","INC_J_ADV_06","PRE","","null","","display digit","<div class=""stimulus"">4</div>","null","3,1,6,4,5,9,4,8,0,7,6,4","","","4",""
"survey-html-form-autofocus","199","580756","0.0-56.0-12.0-19.0-24.0-23.0-29.0-23.0-13.0","INC_J_ADV_06","PRE","","24131.5","{""recall"":""59480764""}","recall","","","316459480764","59480764","59480764","","true"
"html-keyboard-response","200","582232","0.0-56.0-12.0-19.0-24.0-23.0-29.0-23.0-14.0","INC_J_ADV_06","PRE","","null","","fixation cross","<div class='stimulus'>+</div>","null","","","","",""
"html-keyboard-response","201","584041","0.0-56.0-12.0-19.0-24.0-23.0-29.0-23.0-15.0","INC_J_ADV_06","PRE","","null","","display digit","<div class=""stimulus"">0</div>","null","0,7,9,7,3,2,1,9,2,9,3,9","","","0",""
"html-keyboard-response","202","585850","0.0-56.0-12.0-19.0-24.0-23.0-29.0-23.0-16.0","INC_J_ADV_06","PRE","","null","","display digit","<div class=""stimulus"">7</div>","null","0,7,9,7,3,2,1,9,2,9,3,9","","","7",""
"html-keyboard-response","203","587637","0.0-56.0-12.0-19.0-24.0-23.0-29.0-23.0-17.0","INC_J_ADV_06","PRE","","null","","display digit","<div class=""stimulus"">9</div>","null","0,7,9,7,3,2,1,9,2,9,3,9","","","9",""
"html-keyboard-response","204","589432","0.0-56.0-12.0-19.0-24.0-23.0-29.0-23.0-18.0","INC_J_ADV_06","PRE","","null","","display digit","<div class=""stimulus"">7</div>","null","0,7,9,7,3,2,1,9,2,9,3,9","","","7",""
"html-keyboard-response","205","591224","0.0-56.0-12.0-19.0-24.0-23.0-29.0-23.0-19.0","INC_J_ADV_06","PRE","","null","","display digit","<div class=""stimulus"">3</div>","null","0,7,9,7,3,2,1,9,2,9,3,9","","","3",""
"html-keyboard-response","206","593014","0.0-56.0-12.0-19.0-24.0-23.0-29.0-23.0-20.0","INC_J_ADV_06","PRE","","null","","display digit","<div class=""stimulus"">2</div>","null","0,7,9,7,3,2,1,9,2,9,3,9","","","2",""
"html-keyboard-response","207","594808","0.0-56.0-12.0-19.0-24.0-23.0-29.0-23.0-21.0","INC_J_ADV_06","PRE","","null","","display digit","<div class=""stimulus"">1</div>","null","0,7,9,7,3,2,1,9,2,9,3,9","","","1",""
"html-keyboard-response","208","596604","0.0-56.0-12.0-19.0-24.0-23.0-29.0-23.0-22.0","INC_J_ADV_06","PRE","","null","","display digit","<div class=""stimulus"">9</div>","null","0,7,9,7,3,2,1,9,2,9,3,9","","","9",""
"html-keyboard-response","209","598395","0.0-56.0-12.0-19.0-24.0-23.0-29.0-23.0-23.0","INC_J_ADV_06","PRE","","null","","display digit","<div class=""stimulus"">2</div>","null","0,7,9,7,3,2,1,9,2,9,3,9","","","2",""
"html-keyboard-response","210","600199","0.0-56.0-12.0-19.0-24.0-23.0-29.0-23.0-24.0","INC_J_ADV_06","PRE","","null","","display digit","<div class=""stimulus"">9</div>","null","0,7,9,7,3,2,1,9,2,9,3,9","","","9",""
"html-keyboard-response","211","601998","0.0-56.0-12.0-19.0-24.0-23.0-29.0-23.0-25.0","INC_J_ADV_06","PRE","","null","","display digit","<div class=""stimulus"">3</div>","null","0,7,9,7,3,2,1,9,2,9,3,9","","","3",""
"html-keyboard-response","212","603806","0.0-56.0-12.0-19.0-24.0-23.0-29.0-23.0-26.0","INC_J_ADV_06","PRE","","null","","display digit","<div class=""stimulus"">9</div>","null","0,7,9,7,3,2,1,9,2,9,3,9","","","9",""
"survey-html-form-autofocus","213","617324","0.0-56.0-12.0-19.0-24.0-23.0-29.0-23.0-27.0","INC_J_ADV_06","PRE","","12851.199999999953","{""recall"":""32192939""}","recall","","","079732192939","32192939","32192939","","true"
"html-keyboard-response","214","618793","0.0-56.0-12.0-19.0-24.0-23.0-29.0-23.0-28.0-0.0","INC_J_ADV_06","PRE","","null","","fixation cross","<div class='stimulus'>+</div>","null","","","","",""
"html-keyboard-response","215","620592","0.0-56.0-12.0-19.0-24.0-23.0-29.0-23.0-28.0-1.0","INC_J_ADV_06","PRE","","null","","display digit","<div class=""stimulus"">8</div>","null","8,4,3,2,7,0,6,9,4,2,1","","","8",""
"html-keyboard-response","216","622381","0.0-56.0-12.0-19.0-24.0-23.0-29.0-23.0-28.0-2.0","INC_J_ADV_06","PRE","","null","","display digit","<div class=""stimulus"">4</div>","null","8,4,3,2,7,0,6,9,4,2,1","","","4",""
"html-keyboard-response","217","624184","0.0-56.0-12.0-19.0-24.0-23.0-29.0-23.0-28.0-3.0","INC_J_ADV_06","PRE","","null","","display digit","<div class=""stimulus"">3</div>","null","8,4,3,2,7,0,6,9,4,2,1","","","3",""
"html-keyboard-response","218","625983","0.0-56.0-12.0-19.0-24.0-23.0-29.0-23.0-28.0-4.0","INC_J_ADV_06","PRE","","null","","display digit","<div class=""stimulus"">2</div>","null","8,4,3,2,7,0,6,9,4,2,1","","","2",""
"html-keyboard-response","219","627785","0.0-56.0-12.0-19.0-24.0-23.0-29.0-23.0-28.0-5.0","INC_J_ADV_06","PRE","","null","","display digit","<div class=""stimulus"">7</div>","null","8,4,3,2,7,0,6,9,4,2,1","","","7",""
"html-keyboard-response","220","629575","0.0-56.0-12.0-19.0-24.0-23.0-29.0-23.0-28.0-6.0","INC_J_ADV_06","PRE","","null","","display digit","<div class=""stimulus"">0</div>","null","8,4,3,2,7,0,6,9,4,2,1","","","0",""
"html-keyboard-response","221","631372","0.0-56.0-12.0-19.0-24.0-23.0-29.0-23.0-28.0-7.0","INC_J_ADV_06","PRE","","null","","display digit","<div class=""stimulus"">6</div>","null","8,4,3,2,7,0,6,9,4,2,1","","","6",""
"html-keyboard-response","222","633165","0.0-56.0-12.0-19.0-24.0-23.0-29.0-23.0-28.0-8.0","INC_J_ADV_06","PRE","","null","","display digit","<div class=""stimulus"">9</div>","null","8,4,3,2,7,0,6,9,4,2,1","","","9",""
"html-keyboard-response","223","634963","0.0-56.0-12.0-19.0-24.0-23.0-29.0-23.0-28.0-9.0","INC_J_ADV_06","PRE","","null","","display digit","<div class=""stimulus"">4</div>","null","8,4,3,2,7,0,6,9,4,2,1","","","4",""
"html-keyboard-response","224","636764","0.0-56.0-12.0-19.0-24.0-23.0-29.0-23.0-28.0-10.0","INC_J_ADV_06","PRE","","null","","display digit","<div class=""stimulus"">2</div>","null","8,4,3,2,7,0,6,9,4,2,1","","","2",""
"html-keyboard-response","225","638558","0.0-56.0-12.0-19.0-24.0-23.0-29.0-23.0-28.0-11.0","INC_J_ADV_06","PRE","","null","","display digit","<div class=""stimulus"">1</div>","null","8,4,3,2,7,0,6,9,4,2,1","","","1",""
"survey-html-form-autofocus","226","660332","0.0-56.0-12.0-19.0-24.0-23.0-29.0-23.0-28.0-12.0","INC_J_ADV_06","PRE","","21095.59999999986","{""recall"":""327069421""}","recall","","","84327069421","327069421","327069421","","true"
"html-keyboard-response","227","661798","0.0-56.0-12.0-19.0-24.0-23.0-29.0-23.0-28.0-13.0","INC_J_ADV_06","PRE","","null","","fixation cross","<div class='stimulus'>+</div>","null","","","","",""
"html-keyboard-response","228","663601","0.0-56.0-12.0-19.0-24.0-23.0-29.0-23.0-28.0-14.0","INC_J_ADV_06","PRE","","null","","display digit","<div class=""stimulus"">5</div>","null","5,1,6,9,0,8,3,2,0","","","5",""
"html-keyboard-response","229","665402","0.0-56.0-12.0-19.0-24.0-23.0-29.0-23.0-28.0-15.0","INC_J_ADV_06","PRE","","null","","display digit","<div class=""stimulus"">1</div>","null","5,1,6,9,0,8,3,2,0","","","1",""
"html-keyboard-response","230","667194","0.0-56.0-12.0-19.0-24.0-23.0-29.0-23.0-28.0-16.0","INC_J_ADV_06","PRE","","null","","display digit","<div class=""stimulus"">6</div>","null","5,1,6,9,0,8,3,2,0","","","6",""
"html-keyboard-response","231","668994","0.0-56.0-12.0-19.0-24.0-23.0-29.0-23.0-28.0-17.0","INC_J_ADV_06","PRE","","null","","display digit","<div class=""stimulus"">9</div>","null","5,1,6,9,0,8,3,2,0","","","9",""
"html-keyboard-response","232","670788","0.0-56.0-12.0-19.0-24.0-23.0-29.0-23.0-28.0-18.0","INC_J_ADV_06","PRE","","null","","display digit","<div class=""stimulus"">0</div>","null","5,1,6,9,0,8,3,2,0","","","0",""
"html-keyboard-response","233","672583","0.0-56.0-12.0-19.0-24.0-23.0-29.0-23.0-28.0-19.0","INC_J_ADV_06","PRE","","null","","display digit","<div class=""stimulus"">8</div>","null","5,1,6,9,0,8,3,2,0","","","8",""
"html-keyboard-response","234","674370","0.0-56.0-12.0-19.0-24.0-23.0-29.0-23.0-28.0-20.0","INC_J_ADV_06","PRE","","null","","display digit","<div class=""stimulus"">3</div>","null","5,1,6,9,0,8,3,2,0","","","3",""
"html-keyboard-response","235","676158","0.0-56.0-12.0-19.0-24.0-23.0-29.0-23.0-28.0-21.0","INC_J_ADV_06","PRE","","null","","display digit","<div class=""stimulus"">2</div>","null","5,1,6,9,0,8,3,2,0","","","2",""
"html-keyboard-response","236","677959","0.0-56.0-12.0-19.0-24.0-23.0-29.0-23.0-28.0-22.0","INC_J_ADV_06","PRE","","null","","display digit","<div class=""stimulus"">0</div>","null","5,1,6,9,0,8,3,2,0","","","0",""
"survey-html-form-autofocus","237","692876","0.0-56.0-12.0-19.0-24.0-23.0-29.0-23.0-28.0-23.0","INC_J_ADV_06","PRE","","14244.100000000093","{""recall"":""516908320""}","recall","","","516908320","516908320","516908320","","true"
"html-keyboard-response","238","694350","0.0-56.0-12.0-19.0-24.0-23.0-29.0-23.0-28.0-24.0-0.0","INC_J_ADV_06","PRE","","null","","fixation cross","<div class='stimulus'>+</div>","null","","","","",""
"html-keyboard-response","239","696137","0.0-56.0-12.0-19.0-24.0-23.0-29.0-23.0-28.0-24.0-1.0","INC_J_ADV_06","PRE","","null","","display digit","<div class=""stimulus"">0</div>","null","0,6,3,1,3,6,7,3,8,6,2","","","0",""
"html-keyboard-response","240","697924","0.0-56.0-12.0-19.0-24.0-23.0-29.0-23.0-28.0-24.0-2.0","INC_J_ADV_06","PRE","","null","","display digit","<div class=""stimulus"">6</div>","null","0,6,3,1,3,6,7,3,8,6,2","","","6",""
"html-keyboard-response","241","699737","0.0-56.0-12.0-19.0-24.0-23.0-29.0-23.0-28.0-24.0-3.0","INC_J_ADV_06","PRE","","null","","display digit","<div class=""stimulus"">3</div>","null","0,6,3,1,3,6,7,3,8,6,2","","","3",""
"html-keyboard-response","242","701536","0.0-56.0-12.0-19.0-24.0-23.0-29.0-23.0-28.0-24.0-4.0","INC_J_ADV_06","PRE","","null","","display digit","<div class=""stimulus"">1</div>","null","0,6,3,1,3,6,7,3,8,6,2","","","1",""
"html-keyboard-response","243","703340","0.0-56.0-12.0-19.0-24.0-23.0-29.0-23.0-28.0-24.0-5.0","INC_J_ADV_06","PRE","","null","","display digit","<div class=""stimulus"">3</div>","null","0,6,3,1,3,6,7,3,8,6,2","","","3",""
"html-keyboard-response","244","705129","0.0-56.0-12.0-19.0-24.0-23.0-29.0-23.0-28.0-24.0-6.0","INC_J_ADV_06","PRE","","null","","display digit","<div class=""stimulus"">6</div>","null","0,6,3,1,3,6,7,3,8,6,2","","","6",""
"html-keyboard-response","245","706923","0.0-56.0-12.0-19.0-24.0-23.0-29.0-23.0-28.0-24.0-7.0","INC_J_ADV_06","PRE","","null","","display digit","<div class=""stimulus"">7</div>","null","0,6,3,1,3,6,7,3,8,6,2","","","7",""
"html-keyboard-response","246","708727","0.0-56.0-12.0-19.0-24.0-23.0-29.0-23.0-28.0-24.0-8.0","INC_J_ADV_06","PRE","","null","","display digit","<div class=""stimulus"">3</div>","null","0,6,3,1,3,6,7,3,8,6,2","","","3",""
"html-keyboard-response","247","710522","0.0-56.0-12.0-19.0-24.0-23.0-29.0-23.0-28.0-24.0-9.0","INC_J_ADV_06","PRE","","null","","display digit","<div class=""stimulus"">8</div>","null","0,6,3,1,3,6,7,3,8,6,2","","","8",""
"html-keyboard-response","248","712323","0.0-56.0-12.0-19.0-24.0-23.0-29.0-23.0-28.0-24.0-10.0","INC_J_ADV_06","PRE","","null","","display digit","<div class=""stimulus"">6</div>","null","0,6,3,1,3,6,7,3,8,6,2","","","6",""
"html-keyboard-response","249","714117","0.0-56.0-12.0-19.0-24.0-23.0-29.0-23.0-28.0-24.0-11.0","INC_J_ADV_06","PRE","","null","","display digit","<div class=""stimulus"">2</div>","null","0,6,3,1,3,6,7,3,8,6,2","","","2",""
"survey-html-form-autofocus","250","737916","0.0-56.0-12.0-19.0-24.0-23.0-29.0-23.0-28.0-24.0-12.0","INC_J_ADV_06","PRE","","23132.899999999907","{""recall"":""6313673862""}","recall","","","06313673862","6313673862","6313673862","","true"
"html-keyboard-response","251","739393","0.0-56.0-12.0-19.0-24.0-23.0-29.0-23.0-28.0-24.0-13.0","INC_J_ADV_06","PRE","","null","","fixation cross","<div class='stimulus'>+</div>","null","","","","",""
"html-keyboard-response","252","741191","0.0-56.0-12.0-19.0-24.0-23.0-29.0-23.0-28.0-24.0-14.0","INC_J_ADV_06","PRE","","null","","display digit","<div class=""stimulus"">9</div>","null","9,0,7,3,2,7,3,1,0,6,4,9","","","9",""
"html-keyboard-response","253","742990","0.0-56.0-12.0-19.0-24.0-23.0-29.0-23.0-28.0-24.0-15.0","INC_J_ADV_06","PRE","","null","","display digit","<div class=""stimulus"">0</div>","null","9,0,7,3,2,7,3,1,0,6,4,9","","","0",""
"html-keyboard-response","254","744791","0.0-56.0-12.0-19.0-24.0-23.0-29.0-23.0-28.0-24.0-16.0","INC_J_ADV_06","PRE","","null","","display digit","<div class=""stimulus"">7</div>","null","9,0,7,3,2,7,3,1,0,6,4,9","","","7",""
"html-keyboard-response","255","746588","0.0-56.0-12.0-19.0-24.0-23.0-29.0-23.0-28.0-24.0-17.0","INC_J_ADV_06","PRE","","null","","display digit","<div class=""stimulus"">3</div>","null","9,0,7,3,2,7,3,1,0,6,4,9","","","3",""
"html-keyboard-response","256","748394","0.0-56.0-12.0-19.0-24.0-23.0-29.0-23.0-28.0-24.0-18.0","INC_J_ADV_06","PRE","","null","","display digit","<div class=""stimulus"">2</div>","null","9,0,7,3,2,7,3,1,0,6,4,9","","","2",""
"html-keyboard-response","257","750200","0.0-56.0-12.0-19.0-24.0-23.0-29.0-23.0-28.0-24.0-19.0","INC_J_ADV_06","PRE","","null","","display digit","<div class=""stimulus"">7</div>","null","9,0,7,3,2,7,3,1,0,6,4,9","","","7",""
"html-keyboard-response","258","751997","0.0-56.0-12.0-19.0-24.0-23.0-29.0-23.0-28.0-24.0-20.0","INC_J_ADV_06","PRE","","null","","display digit","<div class=""stimulus"">3</div>","null","9,0,7,3,2,7,3,1,0,6,4,9","","","3",""
"html-keyboard-response","259","753795","0.0-56.0-12.0-19.0-24.0-23.0-29.0-23.0-28.0-24.0-21.0","INC_J_ADV_06","PRE","","null","","display digit","<div class=""stimulus"">1</div>","null","9,0,7,3,2,7,3,1,0,6,4,9","","","1",""
"html-keyboard-response","260","755605","0.0-56.0-12.0-19.0-24.0-23.0-29.0-23.0-28.0-24.0-22.0","INC_J_ADV_06","PRE","","null","","display digit","<div class=""stimulus"">0</div>","null","9,0,7,3,2,7,3,1,0,6,4,9","","","0",""
"html-keyboard-response","261","757395","0.0-56.0-12.0-19.0-24.0-23.0-29.0-23.0-28.0-24.0-23.0","INC_J_ADV_06","PRE","","null","","display digit","<div class=""stimulus"">6</div>","null","9,0,7,3,2,7,3,1,0,6,4,9","","","6",""
"html-keyboard-response","262","759190","0.0-56.0-12.0-19.0-24.0-23.0-29.0-23.0-28.0-24.0-24.0","INC_J_ADV_06","PRE","","null","","display digit","<div class=""stimulus"">4</div>","null","9,0,7,3,2,7,3,1,0,6,4,9","","","4",""
"html-keyboard-response","263","760979","0.0-56.0-12.0-19.0-24.0-23.0-29.0-23.0-28.0-24.0-25.0","INC_J_ADV_06","PRE","","null","","display digit","<div class=""stimulus"">9</div>","null","9,0,7,3,2,7,3,1,0,6,4,9","","","9",""
"survey-html-form-autofocus","264","788180","0.0-56.0-12.0-19.0-24.0-23.0-29.0-23.0-28.0-24.0-26.0","INC_J_ADV_06","PRE","","26536","{""recall"":""7327310649""}","recall","","","907327310649","7327310649","7327310649","","true"
"html-keyboard-response","265","789659","0.0-56.0-12.0-19.0-24.0-23.0-29.0-23.0-28.0-24.0-27.0-0.0","INC_J_ADV_06","PRE","","null","","fixation cross","<div class='stimulus'>+</div>","null","","","","",""
"html-keyboard-response","266","791464","0.0-56.0-12.0-19.0-24.0-23.0-29.0-23.0-28.0-24.0-27.0-1.0","INC_J_ADV_06","PRE","","null","","display digit","<div class=""stimulus"">4</div>","null","4,0,2,6,4,3,6,7,3,6,8","","","4",""
"html-keyboard-response","267","793257","0.0-56.0-12.0-19.0-24.0-23.0-29.0-23.0-28.0-24.0-27.0-2.0","INC_J_ADV_06","PRE","","null","","display digit","<div class=""stimulus"">0</div>","null","4,0,2,6,4,3,6,7,3,6,8","","","0",""
"html-keyboard-response","268","795045","0.0-56.0-12.0-19.0-24.0-23.0-29.0-23.0-28.0-24.0-27.0-3.0","INC_J_ADV_06","PRE","","null","","display digit","<div class=""stimulus"">2</div>","null","4,0,2,6,4,3,6,7,3,6,8","","","2",""
"html-keyboard-response","269","796841","0.0-56.0-12.0-19.0-24.0-23.0-29.0-23.0-28.0-24.0-27.0-4.0","INC_J_ADV_06","PRE","","null","","display digit","<div class=""stimulus"">6</div>","null","4,0,2,6,4,3,6,7,3,6,8","","","6",""
"html-keyboard-response","270","798648","0.0-56.0-12.0-19.0-24.0-23.0-29.0-23.0-28.0-24.0-27.0-5.0","INC_J_ADV_06","PRE","","null","","display digit","<div class=""stimulus"">4</div>","null","4,0,2,6,4,3,6,7,3,6,8","","","4",""
"html-keyboard-response","271","800450","0.0-56.0-12.0-19.0-24.0-23.0-29.0-23.0-28.0-24.0-27.0-6.0","INC_J_ADV_06","PRE","","null","","display digit","<div class=""stimulus"">3</div>","null","4,0,2,6,4,3,6,7,3,6,8","","","3",""
"html-keyboard-response","272","802244","0.0-56.0-12.0-19.0-24.0-23.0-29.0-23.0-28.0-24.0-27.0-7.0","INC_J_ADV_06","PRE","","null","","display digit","<div class=""stimulus"">6</div>","null","4,0,2,6,4,3,6,7,3,6,8","","","6",""
"html-keyboard-response","273","804034","0.0-56.0-12.0-19.0-24.0-23.0-29.0-23.0-28.0-24.0-27.0-8.0","INC_J_ADV_06","PRE","","null","","display digit","<div class=""stimulus"">7</div>","null","4,0,2,6,4,3,6,7,3,6,8","","","7",""
"html-keyboard-response","274","805821","0.0-56.0-12.0-19.0-24.0-23.0-29.0-23.0-28.0-24.0-27.0-9.0","INC_J_ADV_06","PRE","","null","","display digit","<div class=""stimulus"">3</div>","null","4,0,2,6,4,3,6,7,3,6,8","","","3",""
"html-keyboard-response","275","807617","0.0-56.0-12.0-19.0-24.0-23.0-29.0-23.0-28.0-24.0-27.0-10.0","INC_J_ADV_06","PRE","","null","","display digit","<div class=""stimulus"">6</div>","null","4,0,2,6,4,3,6,7,3,6,8","","","6",""
"html-keyboard-response","276","809412","0.0-56.0-12.0-19.0-24.0-23.0-29.0-23.0-28.0-24.0-27.0-11.0","INC_J_ADV_06","PRE","","null","","display digit","<div class=""stimulus"">8</div>","null","4,0,2,6,4,3,6,7,3,6,8","","","8",""
"survey-html-form-autofocus","277","834140","0.0-56.0-12.0-19.0-24.0-23.0-29.0-23.0-28.0-24.0-27.0-12.0","INC_J_ADV_06","PRE","","24062.899999999907","{""recall"":""40264367368""}","recall","","","40264367368","40264367368","40264367368","","true"
"html-keyboard-response","278","835614","0.0-56.0-12.0-19.0-24.0-23.0-29.0-23.0-28.0-24.0-27.0-13.0","INC_J_ADV_06","PRE","","null","","fixation cross","<div class='stimulus'>+</div>","null","","","","",""
"html-keyboard-response","279","837422","0.0-56.0-12.0-19.0-24.0-23.0-29.0-23.0-28.0-24.0-27.0-14.0","INC_J_ADV_06","PRE","","null","","display digit","<div class=""stimulus"">2</div>","null","2,1,5,7,0,6,7,9,5,8,2,5,9","","","2",""
"html-keyboard-response","280","839209","0.0-56.0-12.0-19.0-24.0-23.0-29.0-23.0-28.0-24.0-27.0-15.0","INC_J_ADV_06","PRE","","null","","display digit","<div class=""stimulus"">1</div>","null","2,1,5,7,0,6,7,9,5,8,2,5,9","","","1",""
"html-keyboard-response","281","840996","0.0-56.0-12.0-19.0-24.0-23.0-29.0-23.0-28.0-24.0-27.0-16.0","INC_J_ADV_06","PRE","","null","","display digit","<div class=""stimulus"">5</div>","null","2,1,5,7,0,6,7,9,5,8,2,5,9","","","5",""
"html-keyboard-response","282","842795","0.0-56.0-12.0-19.0-24.0-23.0-29.0-23.0-28.0-24.0-27.0-17.0","INC_J_ADV_06","PRE","","null","","display digit","<div class=""stimulus"">7</div>","null","2,1,5,7,0,6,7,9,5,8,2,5,9","","","7",""
"html-keyboard-response","283","844594","0.0-56.0-12.0-19.0-24.0-23.0-29.0-23.0-28.0-24.0-27.0-18.0","INC_J_ADV_06","PRE","","null","","display digit","<div class=""stimulus"">0</div>","null","2,1,5,7,0,6,7,9,5,8,2,5,9","","","0",""
"html-keyboard-response","284","846383","0.0-56.0-12.0-19.0-24.0-23.0-29.0-23.0-28.0-24.0-27.0-19.0","INC_J_ADV_06","PRE","","null","","display digit","<div class=""stimulus"">6</div>","null","2,1,5,7,0,6,7,9,5,8,2,5,9","","","6",""
"html-keyboard-response","285","848174","0.0-56.0-12.0-19.0-24.0-23.0-29.0-23.0-28.0-24.0-27.0-20.0","INC_J_ADV_06","PRE","","null","","display digit","<div class=""stimulus"">7</div>","null","2,1,5,7,0,6,7,9,5,8,2,5,9","","","7",""
"html-keyboard-response","286","849966","0.0-56.0-12.0-19.0-24.0-23.0-29.0-23.0-28.0-24.0-27.0-21.0","INC_J_ADV_06","PRE","","null","","display digit","<div class=""stimulus"">9</div>","null","2,1,5,7,0,6,7,9,5,8,2,5,9","","","9",""
"html-keyboard-response","287","851758","0.0-56.0-12.0-19.0-24.0-23.0-29.0-23.0-28.0-24.0-27.0-22.0","INC_J_ADV_06","PRE","","null","","display digit","<div class=""stimulus"">5</div>","null","2,1,5,7,0,6,7,9,5,8,2,5,9","","","5",""
"html-keyboard-response","288","853546","0.0-56.0-12.0-19.0-24.0-23.0-29.0-23.0-28.0-24.0-27.0-23.0","INC_J_ADV_06","PRE","","null","","display digit","<div class=""stimulus"">8</div>","null","2,1,5,7,0,6,7,9,5,8,2,5,9","","","8",""
"html-keyboard-response","289","855354","0.0-56.0-12.0-19.0-24.0-23.0-29.0-23.0-28.0-24.0-27.0-24.0","INC_J_ADV_06","PRE","","null","","display digit","<div class=""stimulus"">2</div>","null","2,1,5,7,0,6,7,9,5,8,2,5,9","","","2",""
"html-keyboard-response","290","857143","0.0-56.0-12.0-19.0-24.0-23.0-29.0-23.0-28.0-24.0-27.0-25.0","INC_J_ADV_06","PRE","","null","","display digit","<div class=""stimulus"">5</div>","null","2,1,5,7,0,6,7,9,5,8,2,5,9","","","5",""
"html-keyboard-response","291","858938","0.0-56.0-12.0-19.0-24.0-23.0-29.0-23.0-28.0-24.0-27.0-26.0","INC_J_ADV_06","PRE","","null","","display digit","<div class=""stimulus"">9</div>","null","2,1,5,7,0,6,7,9,5,8,2,5,9","","","9",""
"survey-html-form-autofocus","292","887852","0.0-56.0-12.0-19.0-24.0-23.0-29.0-23.0-28.0-24.0-27.0-27.0","INC_J_ADV_06","PRE","","28248.90000000014","{""recall"":""2156058259""}","recall","","","2157067958259","2156058259","57067958259","","false"
"html-keyboard-response","293","889332","0.0-56.0-12.0-19.0-24.0-23.0-29.0-23.0-28.0-24.0-27.0-28.0-0.0","INC_J_ADV_06","PRE","","null","","fixation cross","<div class='stimulus'>+</div>","null","","","","",""
"html-keyboard-response","294","891119","0.0-56.0-12.0-19.0-24.0-23.0-29.0-23.0-28.0-24.0-27.0-28.0-1.0","INC_J_ADV_06","PRE","","null","","display digit","<div class=""stimulus"">7</div>","null","7,0,4,1,8,2,7,4,0,5,2,7,6","","","7",""
"html-keyboard-response","295","892920","0.0-56.0-12.0-19.0-24.0-23.0-29.0-23.0-28.0-24.0-27.0-28.0-2.0","INC_J_ADV_06","PRE","","null","","display digit","<div class=""stimulus"">0</div>","null","7,0,4,1,8,2,7,4,0,5,2,7,6","","","0",""
"html-keyboard-response","296","894716","0.0-56.0-12.0-19.0-24.0-23.0-29.0-23.0-28.0-24.0-27.0-28.0-3.0","INC_J_ADV_06","PRE","","null","","display digit","<div class=""stimulus"">4</div>","null","7,0,4,1,8,2,7,4,0,5,2,7,6","","","4",""
"html-keyboard-response","297","896504","0.0-56.0-12.0-19.0-24.0-23.0-29.0-23.0-28.0-24.0-27.0-28.0-4.0","INC_J_ADV_06","PRE","","null","","display digit","<div class=""stimulus"">1</div>","null","7,0,4,1,8,2,7,4,0,5,2,7,6","","","1",""
"html-keyboard-response","298","898290","0.0-56.0-12.0-19.0-24.0-23.0-29.0-23.0-28.0-24.0-27.0-28.0-5.0","INC_J_ADV_06","PRE","","null","","display digit","<div class=""stimulus"">8</div>","null","7,0,4,1,8,2,7,4,0,5,2,7,6","","","8",""
"html-keyboard-response","299","900097","0.0-56.0-12.0-19.0-24.0-23.0-29.0-23.0-28.0-24.0-27.0-28.0-6.0","INC_J_ADV_06","PRE","","null","","display digit","<div class=""stimulus"">2</div>","null","7,0,4,1,8,2,7,4,0,5,2,7,6","","","2",""
"html-keyboard-response","300","901894","0.0-56.0-12.0-19.0-24.0-23.0-29.0-23.0-28.0-24.0-27.0-28.0-7.0","INC_J_ADV_06","PRE","","null","","display digit","<div class=""stimulus"">7</div>","null","7,0,4,1,8,2,7,4,0,5,2,7,6","","","7",""
"html-keyboard-response","301","903692","0.0-56.0-12.0-19.0-24.0-23.0-29.0-23.0-28.0-24.0-27.0-28.0-8.0","INC_J_ADV_06","PRE","","null","","display digit","<div class=""stimulus"">4</div>","null","7,0,4,1,8,2,7,4,0,5,2,7,6","","","4",""
"html-keyboard-response","302","905489","0.0-56.0-12.0-19.0-24.0-23.0-29.0-23.0-28.0-24.0-27.0-28.0-9.0","INC_J_ADV_06","PRE","","null","","display digit","<div class=""stimulus"">0</div>","null","7,0,4,1,8,2,7,4,0,5,2,7,6","","","0",""
"html-keyboard-response","303","907301","0.0-56.0-12.0-19.0-24.0-23.0-29.0-23.0-28.0-24.0-27.0-28.0-10.0","INC_J_ADV_06","PRE","","null","","display digit","<div class=""stimulus"">5</div>","null","7,0,4,1,8,2,7,4,0,5,2,7,6","","","5",""
"html-keyboard-response","304","909090","0.0-56.0-12.0-19.0-24.0-23.0-29.0-23.0-28.0-24.0-27.0-28.0-11.0","INC_J_ADV_06","PRE","","null","","display digit","<div class=""stimulus"">2</div>","null","7,0,4,1,8,2,7,4,0,5,2,7,6","","","2",""
"html-keyboard-response","305","910878","0.0-56.0-12.0-19.0-24.0-23.0-29.0-23.0-28.0-24.0-27.0-28.0-12.0","INC_J_ADV_06","PRE","","null","","display digit","<div class=""stimulus"">7</div>","null","7,0,4,1,8,2,7,4,0,5,2,7,6","","","7",""
"html-keyboard-response","306","912675","0.0-56.0-12.0-19.0-24.0-23.0-29.0-23.0-28.0-24.0-27.0-28.0-13.0","INC_J_ADV_06","PRE","","null","","display digit","<div class=""stimulus"">6</div>","null","7,0,4,1,8,2,7,4,0,5,2,7,6","","","6",""
"survey-html-form-autofocus","307","935740","0.0-56.0-12.0-19.0-24.0-23.0-29.0-23.0-28.0-24.0-27.0-28.0-14.0","INC_J_ADV_06","PRE","","22398.899999999907","{""recall"":""041827405276""}","recall","","","7041827405276","041827405276","041827405276","","true"
"html-keyboard-response","308","937206","0.0-56.0-12.0-19.0-24.0-23.0-29.0-23.0-28.0-24.0-27.0-28.0-15.0","INC_J_ADV_06","PRE","","null","","fixation cross","<div class='stimulus'>+</div>","null","","","","",""
"html-keyboard-response","309","938994","0.0-56.0-12.0-19.0-24.0-23.0-29.0-23.0-28.0-24.0-27.0-28.0-16.0","INC_J_ADV_06","PRE","","null","","display digit","<div class=""stimulus"">0</div>","null","0,8,1,9,0,8,0,2,9,2,6,3","","","0",""
"html-keyboard-response","310","940792","0.0-56.0-12.0-19.0-24.0-23.0-29.0-23.0-28.0-24.0-27.0-28.0-17.0","INC_J_ADV_06","PRE","","null","","display digit","<div class=""stimulus"">8</div>","null","0,8,1,9,0,8,0,2,9,2,6,3","","","8",""
"html-keyboard-response","311","942592","0.0-56.0-12.0-19.0-24.0-23.0-29.0-23.0-28.0-24.0-27.0-28.0-18.0","INC_J_ADV_06","PRE","","null","","display digit","<div class=""stimulus"">1</div>","null","0,8,1,9,0,8,0,2,9,2,6,3","","","1",""
"html-keyboard-response","312","944383","0.0-56.0-12.0-19.0-24.0-23.0-29.0-23.0-28.0-24.0-27.0-28.0-19.0","INC_J_ADV_06","PRE","","null","","display digit","<div class=""stimulus"">9</div>","null","0,8,1,9,0,8,0,2,9,2,6,3","","","9",""
"html-keyboard-response","313","946184","0.0-56.0-12.0-19.0-24.0-23.0-29.0-23.0-28.0-24.0-27.0-28.0-20.0","INC_J_ADV_06","PRE","","null","","display digit","<div class=""stimulus"">0</div>","null","0,8,1,9,0,8,0,2,9,2,6,3","","","0",""
"html-keyboard-response","314","947979","0.0-56.0-12.0-19.0-24.0-23.0-29.0-23.0-28.0-24.0-27.0-28.0-21.0","INC_J_ADV_06","PRE","","null","","display digit","<div class=""stimulus"">8</div>","null","0,8,1,9,0,8,0,2,9,2,6,3","","","8",""
"html-keyboard-response","315","949775","0.0-56.0-12.0-19.0-24.0-23.0-29.0-23.0-28.0-24.0-27.0-28.0-22.0","INC_J_ADV_06","PRE","","null","","display digit","<div class=""stimulus"">0</div>","null","0,8,1,9,0,8,0,2,9,2,6,3","","","0",""
"html-keyboard-response","316","951573","0.0-56.0-12.0-19.0-24.0-23.0-29.0-23.0-28.0-24.0-27.0-28.0-23.0","INC_J_ADV_06","PRE","","null","","display digit","<div class=""stimulus"">2</div>","null","0,8,1,9,0,8,0,2,9,2,6,3","","","2",""
"html-keyboard-response","317","953369","0.0-56.0-12.0-19.0-24.0-23.0-29.0-23.0-28.0-24.0-27.0-28.0-24.0","INC_J_ADV_06","PRE","","null","","display digit","<div class=""stimulus"">9</div>","null","0,8,1,9,0,8,0,2,9,2,6,3","","","9",""
"html-keyboard-response","318","955159","0.0-56.0-12.0-19.0-24.0-23.0-29.0-23.0-28.0-24.0-27.0-28.0-25.0","INC_J_ADV_06","PRE","","null","","display digit","<div class=""stimulus"">2</div>","null","0,8,1,9,0,8,0,2,9,2,6,3","","","2",""
"html-keyboard-response","319","956955","0.0-56.0-12.0-19.0-24.0-23.0-29.0-23.0-28.0-24.0-27.0-28.0-26.0","INC_J_ADV_06","PRE","","null","","display digit","<div class=""stimulus"">6</div>","null","0,8,1,9,0,8,0,2,9,2,6,3","","","6",""
"html-keyboard-response","320","958746","0.0-56.0-12.0-19.0-24.0-23.0-29.0-23.0-28.0-24.0-27.0-28.0-27.0","INC_J_ADV_06","PRE","","null","","display digit","<div class=""stimulus"">3</div>","null","0,8,1,9,0,8,0,2,9,2,6,3","","","3",""
"survey-html-form-autofocus","321","977020","0.0-56.0-12.0-19.0-24.0-23.0-29.0-23.0-28.0-24.0-27.0-28.0-28.0","INC_J_ADV_06","PRE","","17608","{""recall"":""061908029263""}","recall","","","081908029263","061908029263","081908029263","","false"
"html-keyboard-response","322","978492","0.0-56.0-12.0-19.0-24.0-23.0-29.0-23.0-28.0-24.0-27.0-28.0-29.0-0.0","INC_J_ADV_06","PRE","","null","","fixation cross","<div class='stimulus'>+</div>","null","","","","",""
"html-keyboard-response","323","980290","0.0-56.0-12.0-19.0-24.0-23.0-29.0-23.0-28.0-24.0-27.0-28.0-29.0-1.0","INC_J_ADV_06","PRE","","null","","display digit","<div class=""stimulus"">0</div>","null","0,7,8,1,9,7,3,7,4,0,5,7,9","","","0",""
"html-keyboard-response","324","982083","0.0-56.0-12.0-19.0-24.0-23.0-29.0-23.0-28.0-24.0-27.0-28.0-29.0-2.0","INC_J_ADV_06","PRE","","null","","display digit","<div class=""stimulus"">7</div>","null","0,7,8,1,9,7,3,7,4,0,5,7,9","","","7",""
"html-keyboard-response","325","983896","0.0-56.0-12.0-19.0-24.0-23.0-29.0-23.0-28.0-24.0-27.0-28.0-29.0-3.0","INC_J_ADV_06","PRE","","null","","display digit","<div class=""stimulus"">8</div>","null","0,7,8,1,9,7,3,7,4,0,5,7,9","","","8",""
"html-keyboard-response","326","985684","0.0-56.0-12.0-19.0-24.0-23.0-29.0-23.0-28.0-24.0-27.0-28.0-29.0-4.0","INC_J_ADV_06","PRE","","null","","display digit","<div class=""stimulus"">1</div>","null","0,7,8,1,9,7,3,7,4,0,5,7,9","","","1",""
"html-keyboard-response","327","987493","0.0-56.0-12.0-19.0-24.0-23.0-29.0-23.0-28.0-24.0-27.0-28.0-29.0-5.0","INC_J_ADV_06","PRE","","null","","display digit","<div class=""stimulus"">9</div>","null","0,7,8,1,9,7,3,7,4,0,5,7,9","","","9",""
"html-keyboard-response","328","989290","0.0-56.0-12.0-19.0-24.0-23.0-29.0-23.0-28.0-24.0-27.0-28.0-29.0-6.0","INC_J_ADV_06","PRE","","null","","display digit","<div class=""stimulus"">7</div>","null","0,7,8,1,9,7,3,7,4,0,5,7,9","","","7",""
"html-keyboard-response","329","991086","0.0-56.0-12.0-19.0-24.0-23.0-29.0-23.0-28.0-24.0-27.0-28.0-29.0-7.0","INC_J_ADV_06","PRE","","null","","display digit","<div class=""stimulus"">3</div>","null","0,7,8,1,9,7,3,7,4,0,5,7,9","","","3",""
"html-keyboard-response","330","992872","0.0-56.0-12.0-19.0-24.0-23.0-29.0-23.0-28.0-24.0-27.0-28.0-29.0-8.0","INC_J_ADV_06","PRE","","null","","display digit","<div class=""stimulus"">7</div>","null","0,7,8,1,9,7,3,7,4,0,5,7,9","","","7",""
"html-keyboard-response","331","994664","0.0-56.0-12.0-19.0-24.0-23.0-29.0-23.0-28.0-24.0-27.0-28.0-29.0-9.0","INC_J_ADV_06","PRE","","null","","display digit","<div class=""stimulus"">4</div>","null","0,7,8,1,9,7,3,7,4,0,5,7,9","","","4",""
"html-keyboard-response","332","996456","0.0-56.0-12.0-19.0-24.0-23.0-29.0-23.0-28.0-24.0-27.0-28.0-29.0-10.0","INC_J_ADV_06","PRE","","null","","display digit","<div class=""stimulus"">0</div>","null","0,7,8,1,9,7,3,7,4,0,5,7,9","","","0",""
"html-keyboard-response","333","998258","0.0-56.0-12.0-19.0-24.0-23.0-29.0-23.0-28.0-24.0-27.0-28.0-29.0-11.0","INC_J_ADV_06","PRE","","null","","display digit","<div class=""stimulus"">5</div>","null","0,7,8,1,9,7,3,7,4,0,5,7,9","","","5",""
"html-keyboard-response","334","1000067","0.0-56.0-12.0-19.0-24.0-23.0-29.0-23.0-28.0-24.0-27.0-28.0-29.0-12.0","INC_J_ADV_06","PRE","","null","","display digit","<div class=""stimulus"">7</div>","null","0,7,8,1,9,7,3,7,4,0,5,7,9","","","7",""
"html-keyboard-response","335","1001860","0.0-56.0-12.0-19.0-24.0-23.0-29.0-23.0-28.0-24.0-27.0-28.0-29.0-13.0","INC_J_ADV_06","PRE","","null","","display digit","<div class=""stimulus"">9</div>","null","0,7,8,1,9,7,3,7,4,0,5,7,9","","","9",""
"survey-html-form-autofocus","336","1028301","0.0-56.0-12.0-19.0-24.0-23.0-29.0-23.0-28.0-24.0-27.0-28.0-29.0-14.0","INC_J_ADV_06","PRE","","25766.899999999907","{""recall"":""0781973740579""}","recall","","","0781973740579","0781973740579","0781973740579","","true"
"html-keyboard-response","337","1029775","0.0-56.0-12.0-19.0-24.0-23.0-29.0-23.0-28.0-24.0-27.0-28.0-29.0-15.0","INC_J_ADV_06","PRE","","null","","fixation cross","<div class='stimulus'>+</div>","null","","","","",""
"html-keyboard-response","338","1031563","0.0-56.0-12.0-19.0-24.0-23.0-29.0-23.0-28.0-24.0-27.0-28.0-29.0-16.0","INC_J_ADV_06","PRE","","null","","display digit","<div class=""stimulus"">6</div>","null","6,8,6,3,1,3,8,5,6,0,2,9,7","","","6",""
"html-keyboard-response","339","1033361","0.0-56.0-12.0-19.0-24.0-23.0-29.0-23.0-28.0-24.0-27.0-28.0-29.0-17.0","INC_J_ADV_06","PRE","","null","","display digit","<div class=""stimulus"">8</div>","null","6,8,6,3,1,3,8,5,6,0,2,9,7","","","8",""
"html-keyboard-response","340","1035154","0.0-56.0-12.0-19.0-24.0-23.0-29.0-23.0-28.0-24.0-27.0-28.0-29.0-18.0","INC_J_ADV_06","PRE","","null","","display digit","<div class=""stimulus"">6</div>","null","6,8,6,3,1,3,8,5,6,0,2,9,7","","","6",""
"html-keyboard-response","341","1036961","0.0-56.0-12.0-19.0-24.0-23.0-29.0-23.0-28.0-24.0-27.0-28.0-29.0-19.0","INC_J_ADV_06","PRE","","null","","display digit","<div class=""stimulus"">3</div>","null","6,8,6,3,1,3,8,5,6,0,2,9,7","","","3",""
"html-keyboard-response","342","1038754","0.0-56.0-12.0-19.0-24.0-23.0-29.0-23.0-28.0-24.0-27.0-28.0-29.0-20.0","INC_J_ADV_06","PRE","","null","","display digit","<div class=""stimulus"">1</div>","null","6,8,6,3,1,3,8,5,6,0,2,9,7","","","1",""
"html-keyboard-response","343","1040549","0.0-56.0-12.0-19.0-24.0-23.0-29.0-23.0-28.0-24.0-27.0-28.0-29.0-21.0","INC_J_ADV_06","PRE","","null","","display digit","<div class=""stimulus"">3</div>","null","6,8,6,3,1,3,8,5,6,0,2,9,7","","","3",""
"html-keyboard-response","344","1042344","0.0-56.0-12.0-19.0-24.0-23.0-29.0-23.0-28.0-24.0-27.0-28.0-29.0-22.0","INC_J_ADV_06","PRE","","null","","display digit","<div class=""stimulus"">8</div>","null","6,8,6,3,1,3,8,5,6,0,2,9,7","","","8",""
"html-keyboard-response","345","1044144","0.0-56.0-12.0-19.0-24.0-23.0-29.0-23.0-28.0-24.0-27.0-28.0-29.0-23.0","INC_J_ADV_06","PRE","","null","","display digit","<div class=""stimulus"">5</div>","null","6,8,6,3,1,3,8,5,6,0,2,9,7","","","5",""
"html-keyboard-response","346","1045936","0.0-56.0-12.0-19.0-24.0-23.0-29.0-23.0-28.0-24.0-27.0-28.0-29.0-24.0","INC_J_ADV_06","PRE","","null","","display digit","<div class=""stimulus"">6</div>","null","6,8,6,3,1,3,8,5,6,0,2,9,7","","","6",""
"html-keyboard-response","347","1047738","0.0-56.0-12.0-19.0-24.0-23.0-29.0-23.0-28.0-24.0-27.0-28.0-29.0-25.0","INC_J_ADV_06","PRE","","null","","display digit","<div class=""stimulus"">0</div>","null","6,8,6,3,1,3,8,5,6,0,2,9,7","","","0",""
"html-keyboard-response","348","1049548","0.0-56.0-12.0-19.0-24.0-23.0-29.0-23.0-28.0-24.0-27.0-28.0-29.0-26.0","INC_J_ADV_06","PRE","","null","","display digit","<div class=""stimulus"">2</div>","null","6,8,6,3,1,3,8,5,6,0,2,9,7","","","2",""
"html-keyboard-response","349","1051347","0.0-56.0-12.0-19.0-24.0-23.0-29.0-23.0-28.0-24.0-27.0-28.0-29.0-27.0","INC_J_ADV_06","PRE","","null","","display digit","<div class=""stimulus"">9</div>","null","6,8,6,3,1,3,8,5,6,0,2,9,7","","","9",""
"html-keyboard-response","350","1053150","0.0-56.0-12.0-19.0-24.0-23.0-29.0-23.0-28.0-24.0-27.0-28.0-29.0-28.0","INC_J_ADV_06","PRE","","null","","display digit","<div class=""stimulus"">7</div>","null","6,8,6,3,1,3,8,5,6,0,2,9,7","","","7",""
"survey-html-form-autofocus","351","1075493","0.0-56.0-12.0-19.0-24.0-23.0-29.0-23.0-28.0-24.0-27.0-28.0-29.0-29.0","INC_J_ADV_06","PRE","","21677.299999999814","{""recall"":""68631385560297""}","recall","","","6863138560297","68631385560297","6863138560297","","false"
"html-keyboard-response","352","1080141","0.0-57.0","INC_J_ADV_06","PRE","","3973.600000000093","","","<p>End of the experiment.<br/>			   		You reached level 13 and your					total score is 23.</p>					<p class=""important"">PRESS SPACE TO FINISH THE EXPERIMENT.</p>","32","","","","",""
"fullscreen","353","1081159","0.0-58.0","INC_J_ADV_06","PRE","true","","","","","","","","","",""
