"trial_type","trial_index","time_elapsed","internal_node_id","userID","sessionType","success","rt","responses","stage","stimulus","key_press","sequence","recall","sequence_last_digits","digit","correct"
"pavlovia","0","3","0.0-0.0","INC_J_BEG_05","PRE","","","","","","","","","","",""
"fullscreen","1","5237","0.0-1.0","INC_J_BEG_05","PRE","true","","","","","","","","","",""
"survey-html-form","2","40900","0.0-2.0","INC_J_BEG_05","PRE","","34985","{""userID"":""INC_J_BEG_05"",""type"":""PRE""}","userID","","","","","","",""
"html-keyboard-response","3","51340","0.0-3.0","INC_J_BEG_05","PRE","","9773","","","<p>Welcome to this task.</p>			<p>You will see a set of numbers, presented one at a time.<br/>			You need to pay attention to the numbers in the list and their order.<br/>			The list will end abruptly at any time. You will be told to enter the LAST X number of digits.</p>			<p>[Press SPACE to practice]</p>","32","","","","",""
"html-keyboard-response","4","52158","0.0-4.0","INC_J_BEG_05","PRE","","null","","fixation cross","<div class='stimulus'>+</div>","null","","","","",""
"html-keyboard-response","5","53962","0.0-5.0","INC_J_BEG_05","PRE","","null","","practice display digit","<div class=""stimulus"">9</div>","null","9,8,3","","","",""
"html-keyboard-response","6","55766","0.0-6.0","INC_J_BEG_05","PRE","","null","","practice display digit","<div class=""stimulus"">8</div>","null","9,8,3","","","",""
"html-keyboard-response","7","57570","0.0-7.0","INC_J_BEG_05","PRE","","null","","practice display digit","<div class=""stimulus"">3</div>","null","9,8,3","","","",""
"survey-html-form-autofocus","8","61899","0.0-8.0","INC_J_BEG_05","PRE","","3657","{""recall"":""83""}","practice recall","","","983","","83","",""
"html-keyboard-response","9","63779","0.0-9.0","INC_J_BEG_05","PRE","","1211","","","<span class='correct'>Perfect!</span><br/>Press SPACE to continue.","32","","","","",""
"html-keyboard-response","10","64602","0.0-10.0","INC_J_BEG_05","PRE","","null","","fixation cross","<div class='stimulus'>+</div>","null","","","","",""
"html-keyboard-response","11","66405","0.0-11.0","INC_J_BEG_05","PRE","","null","","practice display digit","<div class=""stimulus"">4</div>","null","4,8,2,1,9","","","",""
"html-keyboard-response","12","68211","0.0-12.0","INC_J_BEG_05","PRE","","null","","practice display digit","<div class=""stimulus"">8</div>","null","4,8,2,1,9","","","",""
"html-keyboard-response","13","70015","0.0-13.0","INC_J_BEG_05","PRE","","null","","practice display digit","<div class=""stimulus"">2</div>","null","4,8,2,1,9","","","",""
"html-keyboard-response","14","71818","0.0-14.0","INC_J_BEG_05","PRE","","null","","practice display digit","<div class=""stimulus"">1</div>","null","4,8,2,1,9","","","",""
"html-keyboard-response","15","73623","0.0-15.0","INC_J_BEG_05","PRE","","null","","practice display digit","<div class=""stimulus"">9</div>","null","4,8,2,1,9","","","",""
"survey-html-form-autofocus","16","79427","0.0-16.0","INC_J_BEG_05","PRE","","5133","{""recall"":""219""}","practice recall","","","48219","","219","",""
"html-keyboard-response","17","93987","0.0-17.0","INC_J_BEG_05","PRE","","13888","","","<span class='correct'>Perfect!</span><br/>Press SPACE to continue.","32","","","","",""
"html-keyboard-response","18","94819","0.0-18.0","INC_J_BEG_05","PRE","","null","","fixation cross","<div class='stimulus'>+</div>","null","","","","",""
"html-keyboard-response","19","96620","0.0-19.0","INC_J_BEG_05","PRE","","null","","practice display digit","<div class=""stimulus"">5</div>","null","5,7,1,9,4,2,3,6","","","",""
"html-keyboard-response","20","98429","0.0-20.0","INC_J_BEG_05","PRE","","null","","practice display digit","<div class=""stimulus"">7</div>","null","5,7,1,9,4,2,3,6","","","",""
"html-keyboard-response","21","100228","0.0-21.0","INC_J_BEG_05","PRE","","null","","practice display digit","<div class=""stimulus"">1</div>","null","5,7,1,9,4,2,3,6","","","",""
"html-keyboard-response","22","102032","0.0-22.0","INC_J_BEG_05","PRE","","null","","practice display digit","<div class=""stimulus"">9</div>","null","5,7,1,9,4,2,3,6","","","",""
"html-keyboard-response","23","103836","0.0-23.0","INC_J_BEG_05","PRE","","null","","practice display digit","<div class=""stimulus"">4</div>","null","5,7,1,9,4,2,3,6","","","",""
"html-keyboard-response","24","105640","0.0-24.0","INC_J_BEG_05","PRE","","null","","practice display digit","<div class=""stimulus"">2</div>","null","5,7,1,9,4,2,3,6","","","",""
"html-keyboard-response","25","107444","0.0-25.0","INC_J_BEG_05","PRE","","null","","practice display digit","<div class=""stimulus"">3</div>","null","5,7,1,9,4,2,3,6","","","",""
"html-keyboard-response","26","109248","0.0-26.0","INC_J_BEG_05","PRE","","null","","practice display digit","<div class=""stimulus"">6</div>","null","5,7,1,9,4,2,3,6","","","",""
"survey-html-form-autofocus","27","118411","0.0-27.0","INC_J_BEG_05","PRE","","8488","{""recall"":""1462""}","practice recall","","","57194236","","4236","",""
"html-keyboard-response","28","126659","0.0-28.0","INC_J_BEG_05","PRE","","7573","","","<p>The sequence was 57194236					and you input 1462.<br/>					<span class='incorrect'>You should have written 4236.</span></p>						<p>Press SPACE to continue</p>","32","","","","",""
"html-keyboard-response","29","179612","0.0-29.0","INC_J_BEG_05","PRE","","52934","","","<p>That was the practice section.<br/>			<p>Now goes the official part of the task.<br/>			You won't be given any feedback on your performance.</p>			<p>R U ready?</p>			<p>[Press Y to begin]</p>","89","","","","",""
"html-keyboard-response","30","181082","0.0-30.0","INC_J_BEG_05","PRE","","null","","fixation cross","<div class='stimulus'>+</div>","null","","","","",""
"html-keyboard-response","31","182883","0.0-31.0","INC_J_BEG_05","PRE","","null","","display digit","<div class=""stimulus"">1</div>","null","1,2,7,2,8,1,6,8,2,4,6","","","1",""
"html-keyboard-response","32","184681","0.0-32.0","INC_J_BEG_05","PRE","","null","","display digit","<div class=""stimulus"">2</div>","null","1,2,7,2,8,1,6,8,2,4,6","","","2",""
"html-keyboard-response","33","186480","0.0-33.0","INC_J_BEG_05","PRE","","null","","display digit","<div class=""stimulus"">7</div>","null","1,2,7,2,8,1,6,8,2,4,6","","","7",""
"html-keyboard-response","34","188269","0.0-34.0","INC_J_BEG_05","PRE","","null","","display digit","<div class=""stimulus"">2</div>","null","1,2,7,2,8,1,6,8,2,4,6","","","2",""
"html-keyboard-response","35","190067","0.0-35.0","INC_J_BEG_05","PRE","","null","","display digit","<div class=""stimulus"">8</div>","null","1,2,7,2,8,1,6,8,2,4,6","","","8",""
"html-keyboard-response","36","191865","0.0-36.0","INC_J_BEG_05","PRE","","null","","display digit","<div class=""stimulus"">1</div>","null","1,2,7,2,8,1,6,8,2,4,6","","","1",""
"html-keyboard-response","37","193663","0.0-37.0","INC_J_BEG_05","PRE","","null","","display digit","<div class=""stimulus"">6</div>","null","1,2,7,2,8,1,6,8,2,4,6","","","6",""
"html-keyboard-response","38","195467","0.0-38.0","INC_J_BEG_05","PRE","","null","","display digit","<div class=""stimulus"">8</div>","null","1,2,7,2,8,1,6,8,2,4,6","","","8",""
"html-keyboard-response","39","197272","0.0-39.0","INC_J_BEG_05","PRE","","null","","display digit","<div class=""stimulus"">2</div>","null","1,2,7,2,8,1,6,8,2,4,6","","","2",""
"html-keyboard-response","40","199080","0.0-40.0","INC_J_BEG_05","PRE","","null","","display digit","<div class=""stimulus"">4</div>","null","1,2,7,2,8,1,6,8,2,4,6","","","4",""
"html-keyboard-response","41","200892","0.0-41.0","INC_J_BEG_05","PRE","","null","","display digit","<div class=""stimulus"">6</div>","null","1,2,7,2,8,1,6,8,2,4,6","","","6",""
"survey-html-form-autofocus","42","205572","0.0-42.0","INC_J_BEG_05","PRE","","4010","{""recall"":""6""}","recall","","","12728168246","6","6","","true"
"html-keyboard-response","43","207038","0.0-43.0","INC_J_BEG_05","PRE","","null","","fixation cross","<div class='stimulus'>+</div>","null","","","","",""
"html-keyboard-response","44","208841","0.0-44.0","INC_J_BEG_05","PRE","","null","","display digit","<div class=""stimulus"">7</div>","null","7,2,6,0,1,4,3,4,7,3,9","","","7",""
"html-keyboard-response","45","210646","0.0-45.0","INC_J_BEG_05","PRE","","null","","display digit","<div class=""stimulus"">2</div>","null","7,2,6,0,1,4,3,4,7,3,9","","","2",""
"html-keyboard-response","46","212448","0.0-46.0","INC_J_BEG_05","PRE","","null","","display digit","<div class=""stimulus"">6</div>","null","7,2,6,0,1,4,3,4,7,3,9","","","6",""
"html-keyboard-response","47","214251","0.0-47.0","INC_J_BEG_05","PRE","","null","","display digit","<div class=""stimulus"">0</div>","null","7,2,6,0,1,4,3,4,7,3,9","","","0",""
"html-keyboard-response","48","216056","0.0-48.0","INC_J_BEG_05","PRE","","null","","display digit","<div class=""stimulus"">1</div>","null","7,2,6,0,1,4,3,4,7,3,9","","","1",""
"html-keyboard-response","49","217862","0.0-49.0","INC_J_BEG_05","PRE","","null","","display digit","<div class=""stimulus"">4</div>","null","7,2,6,0,1,4,3,4,7,3,9","","","4",""
"html-keyboard-response","50","219665","0.0-50.0","INC_J_BEG_05","PRE","","null","","display digit","<div class=""stimulus"">3</div>","null","7,2,6,0,1,4,3,4,7,3,9","","","3",""
"html-keyboard-response","51","221469","0.0-51.0","INC_J_BEG_05","PRE","","null","","display digit","<div class=""stimulus"">4</div>","null","7,2,6,0,1,4,3,4,7,3,9","","","4",""
"html-keyboard-response","52","223273","0.0-52.0","INC_J_BEG_05","PRE","","null","","display digit","<div class=""stimulus"">7</div>","null","7,2,6,0,1,4,3,4,7,3,9","","","7",""
"html-keyboard-response","53","225078","0.0-53.0","INC_J_BEG_05","PRE","","null","","display digit","<div class=""stimulus"">3</div>","null","7,2,6,0,1,4,3,4,7,3,9","","","3",""
"html-keyboard-response","54","226882","0.0-54.0","INC_J_BEG_05","PRE","","null","","display digit","<div class=""stimulus"">9</div>","null","7,2,6,0,1,4,3,4,7,3,9","","","9",""
"survey-html-form-autofocus","55","230179","0.0-55.0","INC_J_BEG_05","PRE","","2626","{""recall"":""9""}","recall","","","72601434739","9","9","","true"
"html-keyboard-response","56","231659","0.0-56.0-0.0","INC_J_BEG_05","PRE","","null","","fixation cross","<div class='stimulus'>+</div>","null","","","","",""
"html-keyboard-response","57","233464","0.0-56.0-1.0","INC_J_BEG_05","PRE","","null","","display digit","<div class=""stimulus"">6</div>","null","6,1,5,2,8,6,4,6,1,6,2","","","6",""
"html-keyboard-response","58","235268","0.0-56.0-2.0","INC_J_BEG_05","PRE","","null","","display digit","<div class=""stimulus"">1</div>","null","6,1,5,2,8,6,4,6,1,6,2","","","1",""
"html-keyboard-response","59","237056","0.0-56.0-3.0","INC_J_BEG_05","PRE","","null","","display digit","<div class=""stimulus"">5</div>","null","6,1,5,2,8,6,4,6,1,6,2","","","5",""
"html-keyboard-response","60","238860","0.0-56.0-4.0","INC_J_BEG_05","PRE","","null","","display digit","<div class=""stimulus"">2</div>","null","6,1,5,2,8,6,4,6,1,6,2","","","2",""
"html-keyboard-response","61","240663","0.0-56.0-5.0","INC_J_BEG_05","PRE","","null","","display digit","<div class=""stimulus"">8</div>","null","6,1,5,2,8,6,4,6,1,6,2","","","8",""
"html-keyboard-response","62","242467","0.0-56.0-6.0","INC_J_BEG_05","PRE","","null","","display digit","<div class=""stimulus"">6</div>","null","6,1,5,2,8,6,4,6,1,6,2","","","6",""
"html-keyboard-response","63","244270","0.0-56.0-7.0","INC_J_BEG_05","PRE","","null","","display digit","<div class=""stimulus"">4</div>","null","6,1,5,2,8,6,4,6,1,6,2","","","4",""
"html-keyboard-response","64","246073","0.0-56.0-8.0","INC_J_BEG_05","PRE","","null","","display digit","<div class=""stimulus"">6</div>","null","6,1,5,2,8,6,4,6,1,6,2","","","6",""
"html-keyboard-response","65","247877","0.0-56.0-9.0","INC_J_BEG_05","PRE","","null","","display digit","<div class=""stimulus"">1</div>","null","6,1,5,2,8,6,4,6,1,6,2","","","1",""
"html-keyboard-response","66","249681","0.0-56.0-10.0","INC_J_BEG_05","PRE","","null","","display digit","<div class=""stimulus"">6</div>","null","6,1,5,2,8,6,4,6,1,6,2","","","6",""
"html-keyboard-response","67","251486","0.0-56.0-11.0","INC_J_BEG_05","PRE","","null","","display digit","<div class=""stimulus"">2</div>","null","6,1,5,2,8,6,4,6,1,6,2","","","2",""
"survey-html-form-autofocus","68","259788","0.0-56.0-12.0","INC_J_BEG_05","PRE","","7633","{""recall"":""26""}","recall","","","61528646162","26","62","","false"
"html-keyboard-response","69","261254","0.0-56.0-13.0","INC_J_BEG_05","PRE","","null","","fixation cross","<div class='stimulus'>+</div>","null","","","","",""
"html-keyboard-response","70","263059","0.0-56.0-14.0","INC_J_BEG_05","PRE","","null","","display digit","<div class=""stimulus"">3</div>","null","3,4,3,9,1,8,7,1,0,8,1","","","3",""
"html-keyboard-response","71","264862","0.0-56.0-15.0","INC_J_BEG_05","PRE","","null","","display digit","<div class=""stimulus"">4</div>","null","3,4,3,9,1,8,7,1,0,8,1","","","4",""
"html-keyboard-response","72","266666","0.0-56.0-16.0","INC_J_BEG_05","PRE","","null","","display digit","<div class=""stimulus"">3</div>","null","3,4,3,9,1,8,7,1,0,8,1","","","3",""
"html-keyboard-response","73","268470","0.0-56.0-17.0","INC_J_BEG_05","PRE","","null","","display digit","<div class=""stimulus"">9</div>","null","3,4,3,9,1,8,7,1,0,8,1","","","9",""
"html-keyboard-response","74","270274","0.0-56.0-18.0","INC_J_BEG_05","PRE","","null","","display digit","<div class=""stimulus"">1</div>","null","3,4,3,9,1,8,7,1,0,8,1","","","1",""
"html-keyboard-response","75","272077","0.0-56.0-19.0","INC_J_BEG_05","PRE","","null","","display digit","<div class=""stimulus"">8</div>","null","3,4,3,9,1,8,7,1,0,8,1","","","8",""
"html-keyboard-response","76","273883","0.0-56.0-20.0","INC_J_BEG_05","PRE","","null","","display digit","<div class=""stimulus"">7</div>","null","3,4,3,9,1,8,7,1,0,8,1","","","7",""
"html-keyboard-response","77","275687","0.0-56.0-21.0","INC_J_BEG_05","PRE","","null","","display digit","<div class=""stimulus"">1</div>","null","3,4,3,9,1,8,7,1,0,8,1","","","1",""
"html-keyboard-response","78","277491","0.0-56.0-22.0","INC_J_BEG_05","PRE","","null","","display digit","<div class=""stimulus"">0</div>","null","3,4,3,9,1,8,7,1,0,8,1","","","0",""
"html-keyboard-response","79","279294","0.0-56.0-23.0","INC_J_BEG_05","PRE","","null","","display digit","<div class=""stimulus"">8</div>","null","3,4,3,9,1,8,7,1,0,8,1","","","8",""
"html-keyboard-response","80","281098","0.0-56.0-24.0","INC_J_BEG_05","PRE","","null","","display digit","<div class=""stimulus"">1</div>","null","3,4,3,9,1,8,7,1,0,8,1","","","1",""
"survey-html-form-autofocus","81","286395","0.0-56.0-25.0","INC_J_BEG_05","PRE","","4622","{""recall"":""81""}","recall","","","34391871081","81","81","","true"
"html-keyboard-response","82","287874","0.0-56.0-26.0-0.0","INC_J_BEG_05","PRE","","null","","fixation cross","<div class='stimulus'>+</div>","null","","","","",""
"html-keyboard-response","83","289670","0.0-56.0-26.0-1.0","INC_J_BEG_05","PRE","","null","","display digit","<div class=""stimulus"">8</div>","null","8,0,2,3,5,2,0,7,3,8,1,6,2","","","8",""
"html-keyboard-response","84","291485","0.0-56.0-26.0-2.0","INC_J_BEG_05","PRE","","null","","display digit","<div class=""stimulus"">0</div>","null","8,0,2,3,5,2,0,7,3,8,1,6,2","","","0",""
"html-keyboard-response","85","293293","0.0-56.0-26.0-3.0","INC_J_BEG_05","PRE","","null","","display digit","<div class=""stimulus"">2</div>","null","8,0,2,3,5,2,0,7,3,8,1,6,2","","","2",""
"html-keyboard-response","86","295093","0.0-56.0-26.0-4.0","INC_J_BEG_05","PRE","","null","","display digit","<div class=""stimulus"">3</div>","null","8,0,2,3,5,2,0,7,3,8,1,6,2","","","3",""
"html-keyboard-response","87","296899","0.0-56.0-26.0-5.0","INC_J_BEG_05","PRE","","null","","display digit","<div class=""stimulus"">5</div>","null","8,0,2,3,5,2,0,7,3,8,1,6,2","","","5",""
"html-keyboard-response","88","298703","0.0-56.0-26.0-6.0","INC_J_BEG_05","PRE","","null","","display digit","<div class=""stimulus"">2</div>","null","8,0,2,3,5,2,0,7,3,8,1,6,2","","","2",""
"html-keyboard-response","89","300509","0.0-56.0-26.0-7.0","INC_J_BEG_05","PRE","","null","","display digit","<div class=""stimulus"">0</div>","null","8,0,2,3,5,2,0,7,3,8,1,6,2","","","0",""
"html-keyboard-response","90","302315","0.0-56.0-26.0-8.0","INC_J_BEG_05","PRE","","null","","display digit","<div class=""stimulus"">7</div>","null","8,0,2,3,5,2,0,7,3,8,1,6,2","","","7",""
"html-keyboard-response","91","304125","0.0-56.0-26.0-9.0","INC_J_BEG_05","PRE","","null","","display digit","<div class=""stimulus"">3</div>","null","8,0,2,3,5,2,0,7,3,8,1,6,2","","","3",""
"html-keyboard-response","92","305928","0.0-56.0-26.0-10.0","INC_J_BEG_05","PRE","","null","","display digit","<div class=""stimulus"">8</div>","null","8,0,2,3,5,2,0,7,3,8,1,6,2","","","8",""
"html-keyboard-response","93","307730","0.0-56.0-26.0-11.0","INC_J_BEG_05","PRE","","null","","display digit","<div class=""stimulus"">1</div>","null","8,0,2,3,5,2,0,7,3,8,1,6,2","","","1",""
"html-keyboard-response","94","309528","0.0-56.0-26.0-12.0","INC_J_BEG_05","PRE","","null","","display digit","<div class=""stimulus"">6</div>","null","8,0,2,3,5,2,0,7,3,8,1,6,2","","","6",""
"html-keyboard-response","95","311330","0.0-56.0-26.0-13.0","INC_J_BEG_05","PRE","","null","","display digit","<div class=""stimulus"">2</div>","null","8,0,2,3,5,2,0,7,3,8,1,6,2","","","2",""
"survey-html-form-autofocus","96","315635","0.0-56.0-26.0-14.0","INC_J_BEG_05","PRE","","3639","{""recall"":""162""}","recall","","","8023520738162","162","162","","true"
"html-keyboard-response","97","317117","0.0-56.0-26.0-15.0","INC_J_BEG_05","PRE","","null","","fixation cross","<div class='stimulus'>+</div>","null","","","","",""
"html-keyboard-response","98","318923","0.0-56.0-26.0-16.0","INC_J_BEG_05","PRE","","null","","display digit","<div class=""stimulus"">7</div>","null","7,8,5,2,4","","","7",""
"html-keyboard-response","99","320726","0.0-56.0-26.0-17.0","INC_J_BEG_05","PRE","","null","","display digit","<div class=""stimulus"">8</div>","null","7,8,5,2,4","","","8",""
"html-keyboard-response","100","322531","0.0-56.0-26.0-18.0","INC_J_BEG_05","PRE","","null","","display digit","<div class=""stimulus"">5</div>","null","7,8,5,2,4","","","5",""
"html-keyboard-response","101","324335","0.0-56.0-26.0-19.0","INC_J_BEG_05","PRE","","null","","display digit","<div class=""stimulus"">2</div>","null","7,8,5,2,4","","","2",""
"html-keyboard-response","102","326138","0.0-56.0-26.0-20.0","INC_J_BEG_05","PRE","","null","","display digit","<div class=""stimulus"">4</div>","null","7,8,5,2,4","","","4",""
"survey-html-form-autofocus","103","331660","0.0-56.0-26.0-21.0","INC_J_BEG_05","PRE","","4845","{""recall"":""524""}","recall","","","78524","524","524","","true"
"html-keyboard-response","104","333124","0.0-56.0-26.0-22.0-0.0","INC_J_BEG_05","PRE","","null","","fixation cross","<div class='stimulus'>+</div>","null","","","","",""
"html-keyboard-response","105","334928","0.0-56.0-26.0-22.0-1.0","INC_J_BEG_05","PRE","","null","","display digit","<div class=""stimulus"">3</div>","null","3,2,7,8,2,6,2,7,9,8,2,8,7","","","3",""
"html-keyboard-response","106","336733","0.0-56.0-26.0-22.0-2.0","INC_J_BEG_05","PRE","","null","","display digit","<div class=""stimulus"">2</div>","null","3,2,7,8,2,6,2,7,9,8,2,8,7","","","2",""
"html-keyboard-response","107","338537","0.0-56.0-26.0-22.0-3.0","INC_J_BEG_05","PRE","","null","","display digit","<div class=""stimulus"">7</div>","null","3,2,7,8,2,6,2,7,9,8,2,8,7","","","7",""
"html-keyboard-response","108","340342","0.0-56.0-26.0-22.0-4.0","INC_J_BEG_05","PRE","","null","","display digit","<div class=""stimulus"">8</div>","null","3,2,7,8,2,6,2,7,9,8,2,8,7","","","8",""
"html-keyboard-response","109","342145","0.0-56.0-26.0-22.0-5.0","INC_J_BEG_05","PRE","","null","","display digit","<div class=""stimulus"">2</div>","null","3,2,7,8,2,6,2,7,9,8,2,8,7","","","2",""
"html-keyboard-response","110","343950","0.0-56.0-26.0-22.0-6.0","INC_J_BEG_05","PRE","","null","","display digit","<div class=""stimulus"">6</div>","null","3,2,7,8,2,6,2,7,9,8,2,8,7","","","6",""
"html-keyboard-response","111","345754","0.0-56.0-26.0-22.0-7.0","INC_J_BEG_05","PRE","","null","","display digit","<div class=""stimulus"">2</div>","null","3,2,7,8,2,6,2,7,9,8,2,8,7","","","2",""
"html-keyboard-response","112","347558","0.0-56.0-26.0-22.0-8.0","INC_J_BEG_05","PRE","","null","","display digit","<div class=""stimulus"">7</div>","null","3,2,7,8,2,6,2,7,9,8,2,8,7","","","7",""
"html-keyboard-response","113","349363","0.0-56.0-26.0-22.0-9.0","INC_J_BEG_05","PRE","","null","","display digit","<div class=""stimulus"">9</div>","null","3,2,7,8,2,6,2,7,9,8,2,8,7","","","9",""
"html-keyboard-response","114","351165","0.0-56.0-26.0-22.0-10.0","INC_J_BEG_05","PRE","","null","","display digit","<div class=""stimulus"">8</div>","null","3,2,7,8,2,6,2,7,9,8,2,8,7","","","8",""
"html-keyboard-response","115","352967","0.0-56.0-26.0-22.0-11.0","INC_J_BEG_05","PRE","","null","","display digit","<div class=""stimulus"">2</div>","null","3,2,7,8,2,6,2,7,9,8,2,8,7","","","2",""
"html-keyboard-response","116","354772","0.0-56.0-26.0-22.0-12.0","INC_J_BEG_05","PRE","","null","","display digit","<div class=""stimulus"">8</div>","null","3,2,7,8,2,6,2,7,9,8,2,8,7","","","8",""
"html-keyboard-response","117","356576","0.0-56.0-26.0-22.0-13.0","INC_J_BEG_05","PRE","","null","","display digit","<div class=""stimulus"">7</div>","null","3,2,7,8,2,6,2,7,9,8,2,8,7","","","7",""
"survey-html-form-autofocus","118","361428","0.0-56.0-26.0-22.0-14.0","INC_J_BEG_05","PRE","","4182","{""recall"":""8287""}","recall","","","3278262798287","8287","8287","","true"
"html-keyboard-response","119","362918","0.0-56.0-26.0-22.0-15.0","INC_J_BEG_05","PRE","","null","","fixation cross","<div class='stimulus'>+</div>","null","","","","",""
"html-keyboard-response","120","364723","0.0-56.0-26.0-22.0-16.0","INC_J_BEG_05","PRE","","null","","display digit","<div class=""stimulus"">5</div>","null","5,3,0,6","","","5",""
"html-keyboard-response","121","366526","0.0-56.0-26.0-22.0-17.0","INC_J_BEG_05","PRE","","null","","display digit","<div class=""stimulus"">3</div>","null","5,3,0,6","","","3",""
"html-keyboard-response","122","368329","0.0-56.0-26.0-22.0-18.0","INC_J_BEG_05","PRE","","null","","display digit","<div class=""stimulus"">0</div>","null","5,3,0,6","","","0",""
"html-keyboard-response","123","370133","0.0-56.0-26.0-22.0-19.0","INC_J_BEG_05","PRE","","null","","display digit","<div class=""stimulus"">6</div>","null","5,3,0,6","","","6",""
"survey-html-form-autofocus","124","376371","0.0-56.0-26.0-22.0-20.0","INC_J_BEG_05","PRE","","5562","{""recall"":""5306""}","recall","","","5306","5306","5306","","true"
"html-keyboard-response","125","377853","0.0-56.0-26.0-22.0-21.0-0.0","INC_J_BEG_05","PRE","","null","","fixation cross","<div class='stimulus'>+</div>","null","","","","",""
"html-keyboard-response","126","379649","0.0-56.0-26.0-22.0-21.0-1.0","INC_J_BEG_05","PRE","","null","","display digit","<div class=""stimulus"">5</div>","null","5,2,1,4,2,5,1,7,1,8,5,3,0","","","5",""
"html-keyboard-response","127","381455","0.0-56.0-26.0-22.0-21.0-2.0","INC_J_BEG_05","PRE","","null","","display digit","<div class=""stimulus"">2</div>","null","5,2,1,4,2,5,1,7,1,8,5,3,0","","","2",""
"html-keyboard-response","128","383257","0.0-56.0-26.0-22.0-21.0-3.0","INC_J_BEG_05","PRE","","null","","display digit","<div class=""stimulus"">1</div>","null","5,2,1,4,2,5,1,7,1,8,5,3,0","","","1",""
"html-keyboard-response","129","385060","0.0-56.0-26.0-22.0-21.0-4.0","INC_J_BEG_05","PRE","","null","","display digit","<div class=""stimulus"">4</div>","null","5,2,1,4,2,5,1,7,1,8,5,3,0","","","4",""
"html-keyboard-response","130","386864","0.0-56.0-26.0-22.0-21.0-5.0","INC_J_BEG_05","PRE","","null","","display digit","<div class=""stimulus"">2</div>","null","5,2,1,4,2,5,1,7,1,8,5,3,0","","","2",""
"html-keyboard-response","131","388669","0.0-56.0-26.0-22.0-21.0-6.0","INC_J_BEG_05","PRE","","null","","display digit","<div class=""stimulus"">5</div>","null","5,2,1,4,2,5,1,7,1,8,5,3,0","","","5",""
"html-keyboard-response","132","390474","0.0-56.0-26.0-22.0-21.0-7.0","INC_J_BEG_05","PRE","","null","","display digit","<div class=""stimulus"">1</div>","null","5,2,1,4,2,5,1,7,1,8,5,3,0","","","1",""
"html-keyboard-response","133","392278","0.0-56.0-26.0-22.0-21.0-8.0","INC_J_BEG_05","PRE","","null","","display digit","<div class=""stimulus"">7</div>","null","5,2,1,4,2,5,1,7,1,8,5,3,0","","","7",""
"html-keyboard-response","134","394082","0.0-56.0-26.0-22.0-21.0-9.0","INC_J_BEG_05","PRE","","null","","display digit","<div class=""stimulus"">1</div>","null","5,2,1,4,2,5,1,7,1,8,5,3,0","","","1",""
"html-keyboard-response","135","395885","0.0-56.0-26.0-22.0-21.0-10.0","INC_J_BEG_05","PRE","","null","","display digit","<div class=""stimulus"">8</div>","null","5,2,1,4,2,5,1,7,1,8,5,3,0","","","8",""
"html-keyboard-response","136","397687","0.0-56.0-26.0-22.0-21.0-11.0","INC_J_BEG_05","PRE","","null","","display digit","<div class=""stimulus"">5</div>","null","5,2,1,4,2,5,1,7,1,8,5,3,0","","","5",""
"html-keyboard-response","137","399489","0.0-56.0-26.0-22.0-21.0-12.0","INC_J_BEG_05","PRE","","null","","display digit","<div class=""stimulus"">3</div>","null","5,2,1,4,2,5,1,7,1,8,5,3,0","","","3",""
"html-keyboard-response","138","401295","0.0-56.0-26.0-22.0-21.0-13.0","INC_J_BEG_05","PRE","","null","","display digit","<div class=""stimulus"">0</div>","null","5,2,1,4,2,5,1,7,1,8,5,3,0","","","0",""
"survey-html-form-autofocus","139","409436","0.0-56.0-26.0-22.0-21.0-14.0","INC_J_BEG_05","PRE","","7464","{""recall"":""18530""}","recall","","","5214251718530","18530","18530","","true"
"html-keyboard-response","140","410915","0.0-56.0-26.0-22.0-21.0-15.0","INC_J_BEG_05","PRE","","null","","fixation cross","<div class='stimulus'>+</div>","null","","","","",""
"html-keyboard-response","141","412727","0.0-56.0-26.0-22.0-21.0-16.0","INC_J_BEG_05","PRE","","null","","display digit","<div class=""stimulus"">2</div>","null","2,1,6,0,6,7,8","","","2",""
"html-keyboard-response","142","414527","0.0-56.0-26.0-22.0-21.0-17.0","INC_J_BEG_05","PRE","","null","","display digit","<div class=""stimulus"">1</div>","null","2,1,6,0,6,7,8","","","1",""
"html-keyboard-response","143","416329","0.0-56.0-26.0-22.0-21.0-18.0","INC_J_BEG_05","PRE","","null","","display digit","<div class=""stimulus"">6</div>","null","2,1,6,0,6,7,8","","","6",""
"html-keyboard-response","144","418130","0.0-56.0-26.0-22.0-21.0-19.0","INC_J_BEG_05","PRE","","null","","display digit","<div class=""stimulus"">0</div>","null","2,1,6,0,6,7,8","","","0",""
"html-keyboard-response","145","419920","0.0-56.0-26.0-22.0-21.0-20.0","INC_J_BEG_05","PRE","","null","","display digit","<div class=""stimulus"">6</div>","null","2,1,6,0,6,7,8","","","6",""
"html-keyboard-response","146","421723","0.0-56.0-26.0-22.0-21.0-21.0","INC_J_BEG_05","PRE","","null","","display digit","<div class=""stimulus"">7</div>","null","2,1,6,0,6,7,8","","","7",""
"html-keyboard-response","147","423516","0.0-56.0-26.0-22.0-21.0-22.0","INC_J_BEG_05","PRE","","null","","display digit","<div class=""stimulus"">8</div>","null","2,1,6,0,6,7,8","","","8",""
"survey-html-form-autofocus","148","430444","0.0-56.0-26.0-22.0-21.0-23.0","INC_J_BEG_05","PRE","","6259","{""recall"":""60678""}","recall","","","2160678","60678","60678","","true"
"html-keyboard-response","149","431926","0.0-56.0-26.0-22.0-21.0-24.0-0.0","INC_J_BEG_05","PRE","","null","","fixation cross","<div class='stimulus'>+</div>","null","","","","",""
"html-keyboard-response","150","433736","0.0-56.0-26.0-22.0-21.0-24.0-1.0","INC_J_BEG_05","PRE","","null","","display digit","<div class=""stimulus"">1</div>","null","1,6,2,7,8,1,4","","","1",""
"html-keyboard-response","151","435537","0.0-56.0-26.0-22.0-21.0-24.0-2.0","INC_J_BEG_05","PRE","","null","","display digit","<div class=""stimulus"">6</div>","null","1,6,2,7,8,1,4","","","6",""
"html-keyboard-response","152","437345","0.0-56.0-26.0-22.0-21.0-24.0-3.0","INC_J_BEG_05","PRE","","null","","display digit","<div class=""stimulus"">2</div>","null","1,6,2,7,8,1,4","","","2",""
"html-keyboard-response","153","439133","0.0-56.0-26.0-22.0-21.0-24.0-4.0","INC_J_BEG_05","PRE","","null","","display digit","<div class=""stimulus"">7</div>","null","1,6,2,7,8,1,4","","","7",""
"html-keyboard-response","154","440937","0.0-56.0-26.0-22.0-21.0-24.0-5.0","INC_J_BEG_05","PRE","","null","","display digit","<div class=""stimulus"">8</div>","null","1,6,2,7,8,1,4","","","8",""
"html-keyboard-response","155","442741","0.0-56.0-26.0-22.0-21.0-24.0-6.0","INC_J_BEG_05","PRE","","null","","display digit","<div class=""stimulus"">1</div>","null","1,6,2,7,8,1,4","","","1",""
"html-keyboard-response","156","444545","0.0-56.0-26.0-22.0-21.0-24.0-7.0","INC_J_BEG_05","PRE","","null","","display digit","<div class=""stimulus"">4</div>","null","1,6,2,7,8,1,4","","","4",""
"survey-html-form-autofocus","157","454628","0.0-56.0-26.0-22.0-21.0-24.0-8.0","INC_J_BEG_05","PRE","","9407","{""recall"":""627814""}","recall","","","1627814","627814","627814","","true"
"html-keyboard-response","158","456111","0.0-56.0-26.0-22.0-21.0-24.0-9.0","INC_J_BEG_05","PRE","","null","","fixation cross","<div class='stimulus'>+</div>","null","","","","",""
"html-keyboard-response","159","457915","0.0-56.0-26.0-22.0-21.0-24.0-10.0","INC_J_BEG_05","PRE","","null","","display digit","<div class=""stimulus"">7</div>","null","7,6,7,1,9,6,9,7,0","","","7",""
"html-keyboard-response","160","459720","0.0-56.0-26.0-22.0-21.0-24.0-11.0","INC_J_BEG_05","PRE","","null","","display digit","<div class=""stimulus"">6</div>","null","7,6,7,1,9,6,9,7,0","","","6",""
"html-keyboard-response","161","461523","0.0-56.0-26.0-22.0-21.0-24.0-12.0","INC_J_BEG_05","PRE","","null","","display digit","<div class=""stimulus"">7</div>","null","7,6,7,1,9,6,9,7,0","","","7",""
"html-keyboard-response","162","463327","0.0-56.0-26.0-22.0-21.0-24.0-13.0","INC_J_BEG_05","PRE","","null","","display digit","<div class=""stimulus"">1</div>","null","7,6,7,1,9,6,9,7,0","","","1",""
"html-keyboard-response","163","465132","0.0-56.0-26.0-22.0-21.0-24.0-14.0","INC_J_BEG_05","PRE","","null","","display digit","<div class=""stimulus"">9</div>","null","7,6,7,1,9,6,9,7,0","","","9",""
"html-keyboard-response","164","466935","0.0-56.0-26.0-22.0-21.0-24.0-15.0","INC_J_BEG_05","PRE","","null","","display digit","<div class=""stimulus"">6</div>","null","7,6,7,1,9,6,9,7,0","","","6",""
"html-keyboard-response","165","468742","0.0-56.0-26.0-22.0-21.0-24.0-16.0","INC_J_BEG_05","PRE","","null","","display digit","<div class=""stimulus"">9</div>","null","7,6,7,1,9,6,9,7,0","","","9",""
"html-keyboard-response","166","470546","0.0-56.0-26.0-22.0-21.0-24.0-17.0","INC_J_BEG_05","PRE","","null","","display digit","<div class=""stimulus"">7</div>","null","7,6,7,1,9,6,9,7,0","","","7",""
"html-keyboard-response","167","472349","0.0-56.0-26.0-22.0-21.0-24.0-18.0","INC_J_BEG_05","PRE","","null","","display digit","<div class=""stimulus"">0</div>","null","7,6,7,1,9,6,9,7,0","","","0",""
"survey-html-form-autofocus","168","485859","0.0-56.0-26.0-22.0-21.0-24.0-19.0","INC_J_BEG_05","PRE","","12840","{""recall"":""796970""}","recall","","","767196970","796970","196970","","false"
"html-keyboard-response","169","487329","0.0-56.0-26.0-22.0-21.0-24.0-20.0-0.0","INC_J_BEG_05","PRE","","null","","fixation cross","<div class='stimulus'>+</div>","null","","","","",""
"html-keyboard-response","170","489133","0.0-56.0-26.0-22.0-21.0-24.0-20.0-1.0","INC_J_BEG_05","PRE","","null","","display digit","<div class=""stimulus"">7</div>","null","7,4,5,0,1,7,2,6,9","","","7",""
"html-keyboard-response","171","490934","0.0-56.0-26.0-22.0-21.0-24.0-20.0-2.0","INC_J_BEG_05","PRE","","null","","display digit","<div class=""stimulus"">4</div>","null","7,4,5,0,1,7,2,6,9","","","4",""
"html-keyboard-response","172","492738","0.0-56.0-26.0-22.0-21.0-24.0-20.0-3.0","INC_J_BEG_05","PRE","","null","","display digit","<div class=""stimulus"">5</div>","null","7,4,5,0,1,7,2,6,9","","","5",""
"html-keyboard-response","173","494542","0.0-56.0-26.0-22.0-21.0-24.0-20.0-4.0","INC_J_BEG_05","PRE","","null","","display digit","<div class=""stimulus"">0</div>","null","7,4,5,0,1,7,2,6,9","","","0",""
"html-keyboard-response","174","496341","0.0-56.0-26.0-22.0-21.0-24.0-20.0-5.0","INC_J_BEG_05","PRE","","null","","display digit","<div class=""stimulus"">1</div>","null","7,4,5,0,1,7,2,6,9","","","1",""
"html-keyboard-response","175","498150","0.0-56.0-26.0-22.0-21.0-24.0-20.0-6.0","INC_J_BEG_05","PRE","","null","","display digit","<div class=""stimulus"">7</div>","null","7,4,5,0,1,7,2,6,9","","","7",""
"html-keyboard-response","176","499954","0.0-56.0-26.0-22.0-21.0-24.0-20.0-7.0","INC_J_BEG_05","PRE","","null","","display digit","<div class=""stimulus"">2</div>","null","7,4,5,0,1,7,2,6,9","","","2",""
"html-keyboard-response","177","501758","0.0-56.0-26.0-22.0-21.0-24.0-20.0-8.0","INC_J_BEG_05","PRE","","null","","display digit","<div class=""stimulus"">6</div>","null","7,4,5,0,1,7,2,6,9","","","6",""
"html-keyboard-response","178","503562","0.0-56.0-26.0-22.0-21.0-24.0-20.0-9.0","INC_J_BEG_05","PRE","","null","","display digit","<div class=""stimulus"">9</div>","null","7,4,5,0,1,7,2,6,9","","","9",""
"survey-html-form-autofocus","179","525132","0.0-56.0-26.0-22.0-21.0-24.0-20.0-10.0","INC_J_BEG_05","PRE","","20893","{""recall"":""5017264""}","recall","","","745017269","5017264","5017269","","false"
"html-keyboard-response","180","526613","0.0-56.0-26.0-22.0-21.0-24.0-20.0-11.0","INC_J_BEG_05","PRE","","null","","fixation cross","<div class='stimulus'>+</div>","null","","","","",""
"html-keyboard-response","181","528417","0.0-56.0-26.0-22.0-21.0-24.0-20.0-12.0","INC_J_BEG_05","PRE","","null","","display digit","<div class=""stimulus"">9</div>","null","9,4,6,2,3,2,7,3,1","","","9",""
"html-keyboard-response","182","530235","0.0-56.0-26.0-22.0-21.0-24.0-20.0-13.0","INC_J_BEG_05","PRE","","null","","display digit","<div class=""stimulus"">4</div>","null","9,4,6,2,3,2,7,3,1","","","4",""
"html-keyboard-response","183","532040","0.0-56.0-26.0-22.0-21.0-24.0-20.0-14.0","INC_J_BEG_05","PRE","","null","","display digit","<div class=""stimulus"">6</div>","null","9,4,6,2,3,2,7,3,1","","","6",""
"html-keyboard-response","184","533843","0.0-56.0-26.0-22.0-21.0-24.0-20.0-15.0","INC_J_BEG_05","PRE","","null","","display digit","<div class=""stimulus"">2</div>","null","9,4,6,2,3,2,7,3,1","","","2",""
"html-keyboard-response","185","535646","0.0-56.0-26.0-22.0-21.0-24.0-20.0-16.0","INC_J_BEG_05","PRE","","null","","display digit","<div class=""stimulus"">3</div>","null","9,4,6,2,3,2,7,3,1","","","3",""
"html-keyboard-response","186","537451","0.0-56.0-26.0-22.0-21.0-24.0-20.0-17.0","INC_J_BEG_05","PRE","","null","","display digit","<div class=""stimulus"">2</div>","null","9,4,6,2,3,2,7,3,1","","","2",""
"html-keyboard-response","187","539254","0.0-56.0-26.0-22.0-21.0-24.0-20.0-18.0","INC_J_BEG_05","PRE","","null","","display digit","<div class=""stimulus"">7</div>","null","9,4,6,2,3,2,7,3,1","","","7",""
"html-keyboard-response","188","541071","0.0-56.0-26.0-22.0-21.0-24.0-20.0-19.0","INC_J_BEG_05","PRE","","null","","display digit","<div class=""stimulus"">3</div>","null","9,4,6,2,3,2,7,3,1","","","3",""
"html-keyboard-response","189","542878","0.0-56.0-26.0-22.0-21.0-24.0-20.0-20.0","INC_J_BEG_05","PRE","","null","","display digit","<div class=""stimulus"">1</div>","null","9,4,6,2,3,2,7,3,1","","","1",""
"survey-html-form-autofocus","190","560724","0.0-56.0-26.0-22.0-21.0-24.0-20.0-21.0","INC_J_BEG_05","PRE","","17169","{""recall"":""4632731""}","recall","","","946232731","4632731","6232731","","false"
"html-keyboard-response","191","565796","0.0-57.0","INC_J_BEG_05","PRE","","4407","","","<p>End of the experiment.<br/>			   		You reached level 7 and your					total score is 10.</p>					<p class=""important"">PRESS SPACE TO FINISH THE EXPERIMENT.</p>","32","","","","",""
"fullscreen","192","566824","0.0-58.0","INC_J_BEG_05","PRE","true","","","","","","","","","",""
