key_resp.keys,key_resp.rt,key_resp.duration,instruct_loop.thisRepN,instruct_loop.thisTrialN,instruct_loop.thisN,instruct_loop.thisIndex,instruct_loop.ran,participant*,session,date,expName,psychopyVersion,OS,frameRate,positions,trial_type,corsi_mouse.x,corsi_mouse.y,corsi_mouse.leftButton,corsi_mouse.midButton,corsi_mouse.rightButton,corsi_mouse.time,corsi_mouse.clicked_name,correct_list,corsi_correct,repeat_loop.thisRepN,repeat_loop.thisTrialN,repeat_loop.thisN,repeat_loop.thisIndex,repeat_loop.ran,corsi_trials.thisRepN,corsi_trials.thisTrialN,corsi_trials.thisN,corsi_trials.thisIndex,corsi_trials.ran,final_corsi_span
space,43.7397,,0,0,0,0,1,INC_J_BEG_010,001,2023-07-20_09h06.32.860,reverse_corsi_task,2023.1.3,Win32,4.997376377,,,,,,,,,,,,,,,,,,,,,,
,,,,,,,,INC_J_BEG_010,001,2023-07-20_09h06.32.860,reverse_corsi_task,2023.1.3,Win32,4.997376377,"[[-0.485,0.34625],[0.45375,0.175],[-0.285,-0.27125],[0.28875,0.39875],[-0.4075,0.11875],[-0.09875,0.065],[-0.26625,0.235],[-0.6025,0.0725],[0.25625,0.0975]]",practice,"[0.4398148148148148,-0.5185185185185185,0.38425925925925924]","[0.18888888888888888,0.36203703703703705,-0.44814814814814813]","[1,1,1]","[0,0,0]","[0,0,0]","[1.5330000000000013,2.817600000000084,13.19320000000019]","[""blk2"",""blk1""]","[1,1]",1,0,0,0,0,1,,,,,,
,,,,,,,,INC_J_BEG_010,001,2023-07-20_09h06.32.860,reverse_corsi_task,2023.1.3,Win32,4.997376377,,,,,,,,,,,,,,,,,0,0,0,0,1,
,,,,,,,,INC_J_BEG_010,001,2023-07-20_09h06.32.860,reverse_corsi_task,2023.1.3,Win32,4.997376377,"[[0.25625,0.0975],[0.16625,0.3825],[-0.09875,0.065],[0.57875,-0.31375],[-0.55125,-0.13375],[-0.01875,0.235],[0.28875,0.39875],[0.4125,-0.1325],[-0.26625,0.235]]",practice,"[0.15648148148148147,0.23055555555555557,0.37962962962962965]","[0.362962962962963,0.13055555555555556,-0.4537037037037037]","[1,1,1]","[0,0,0]","[0,0,0]","[4.650899999999908,6.120999999999995,7.859799999999808]","[""blk2"",""blk1""]","[1,1]",1,0,0,0,0,1,,,,,,
,,,,,,,,INC_J_BEG_010,001,2023-07-20_09h06.32.860,reverse_corsi_task,2023.1.3,Win32,4.997376377,,,,,,,,,,,,,,,,,1,0,1,0,1,
,,,,,,,,INC_J_BEG_010,001,2023-07-20_09h06.32.860,reverse_corsi_task,2023.1.3,Win32,4.997376377,"[[0.4625,0.35875],[0.03125,-0.41],[0.4125,-0.1325],[0.1925,-0.295],[-0.675,0.29875],[-0.45875,-0.3],[0.45375,0.175],[-0.3575,-0.05625],[-0.16125,-0.28]]",practice,"[0.4101851851851852,0.05,0.47962962962962963,0.3592592592592593]","[-0.12129629629629629,-0.41203703703703703,0.37037037037037035,-0.45740740740740743]","[1,1,1,1]","[0,0,0,0]","[0,0,0,0]","[2.4348999999998995,4.653700000000185,6.1343999999999,10.085600000000099]","[""blk3"",""blk2"",""blk1""]","[1,1,1]",1,0,0,0,0,1,,,,,,
,,,,,,,,INC_J_BEG_010,001,2023-07-20_09h06.32.860,reverse_corsi_task,2023.1.3,Win32,4.997376377,,,,,,,,,,,,,,,,,0,0,0,0,1,
,,,,,,,,INC_J_BEG_010,001,2023-07-20_09h06.32.860,reverse_corsi_task,2023.1.3,Win32,4.997376377,"[[0.22,0.2425],[0.62875,-0.1825],[-0.09875,0.065],[-0.45875,-0.3],[0.45375,0.175],[0.05875,-0.0575],[0.25625,0.0975],[0.365,-0.27625],[-0.285,-0.27125]]",practice,"[-0.11203703703703703,0.6462962962962963,0.25277777777777777,0.35648148148148145,0.3675925925925926]","[0.07407407407407407,-0.17222222222222222,0.24814814814814815,-0.48333333333333334,-0.46574074074074073]","[1,1,1,1,1]","[0,0,0,0,0]","[0,0,0,0,0]","[2.221799999999803,3.2091999999997256,4.437299999999823,5.921699999999703,6.657599999999633]","[""blk3"",""blk2"",""blk1""]","[1,1,1]",1,0,0,0,0,1,,,,,,
,,,,,,,,INC_J_BEG_010,001,2023-07-20_09h06.32.860,reverse_corsi_task,2023.1.3,Win32,4.997376377,,,,,,,,,,,,,,,,,1,0,1,0,1,
space,7.7649,0.0005,0,0,0,0,1,INC_J_BEG_010,001,2023-07-20_09h06.32.860,reverse_corsi_task,2023.1.3,Win32,4.997376377,,,,,,,,,,,,,,,,,,,,,,
,,,,,,,,INC_J_BEG_010,001,2023-07-20_09h06.32.860,reverse_corsi_task,2023.1.3,Win32,4.997376377,"[[0.57875,-0.31375],[-0.0225,0.395],[0.05875,-0.0575],[0.22,0.2425],[-0.09875,0.065],[0.4625,0.35875],[-0.16125,-0.28],[0.365,-0.27625],[0.28875,0.39875]]",main,"[0.05648148148148148,-0.008333333333333333,-0.040740740740740744,0.5583333333333333,0.55,0.48703703703703705]","[-0.07037037037037037,0.387037037037037,0.40370370370370373,-0.29907407407407405,-0.29074074074074074,-0.47314814814814815]","[1,1,1,1,1,1]","[0,0,0,0,0,0]","[0,0,0,0,0,0]","[1.2252999999998053,5.639199999999704,6.3802999999998065,10.100999999999999,10.600399999999894,11.344100000000083]","[""blk3"",""blk2"",""blk2"",""blk1"",""blk1""]","[1,1,1]",1,0,0,0,0,1,,,,,,
,,,,,,,,INC_J_BEG_010,001,2023-07-20_09h06.32.860,reverse_corsi_task,2023.1.3,Win32,4.997376377,,,,,,,,,,,,,,,,,0,0,0,0,1,
,,,,,,,,INC_J_BEG_010,001,2023-07-20_09h06.32.860,reverse_corsi_task,2023.1.3,Win32,4.997376377,"[[-0.09875,0.065],[-0.35125,0.36625],[0.0675,0.07375],[-0.24625,0.04375],[-0.0225,0.395],[0.4125,-0.1325],[-0.285,-0.27125],[0.62875,-0.1825],[0.6375,0.27375]]",main,"[0.058333333333333334,0.062037037037037036,-0.38055555555555554,-0.13055555555555556,0.29074074074074074]","[0.06296296296296296,0.09166666666666666,0.3907407407407407,0.07314814814814814,-0.4601851851851852]","[1,1,1,1,1]","[0,0,0,0,0]","[0,0,0,0,0]","[2.2058999999999287,2.9386000000000934,3.9246000000001118,6.177199999999743,7.4221999999997195]","[""blk3"",""blk3"",""blk2"",""blk1""]","[1,1,1]",1,0,0,0,0,1,,,,,,
,,,,,,,,INC_J_BEG_010,001,2023-07-20_09h06.32.860,reverse_corsi_task,2023.1.3,Win32,4.997376377,"[[0.03125,-0.41],[-0.45875,-0.3],[-0.3575,-0.05625],[-0.16125,-0.28],[0.16625,0.3825],[-0.4075,0.11875],[-0.6025,0.0725],[-0.675,0.29875],[0.30125,-0.0175]]",main,"[-0.19074074074074074,-0.36944444444444446,-0.4583333333333333,0.011111111111111112,0.36666666666666664]","[-0.28703703703703703,-0.07407407407407407,-0.29259259259259257,-0.3907407407407407,-0.43703703703703706]","[1,1,1,1,1]","[0,0,0,0,0]","[0,0,0,0,0]","[2.450600000000094,3.917799999999829,4.904000000000025,6.371100000000098,8.846100000000092]","[""blk4"",""blk3"",""blk2"",""blk1""]","[1,1,1,1]",1,0,0,0,0,1,,,,,,
,,,,,,,,INC_J_BEG_010,001,2023-07-20_09h06.32.860,reverse_corsi_task,2023.1.3,Win32,4.997376377,,,,,,,,,,,,,,,,,0,0,0,0,1,
,,,,,,,,INC_J_BEG_010,001,2023-07-20_09h06.32.860,reverse_corsi_task,2023.1.3,Win32,4.997376377,"[[-0.01875,0.235],[-0.0225,0.395],[0.22,0.2425],[0.62875,-0.1825],[0.57875,-0.31375],[-0.35125,0.36625],[0.1925,-0.295],[-0.55125,-0.13375],[0.25625,0.0975]]",main,"[0.6462962962962963,0.22592592592592592,-0.03425925925925926,-0.028703703703703703,0.33055555555555555]","[-0.1814814814814815,0.22962962962962963,0.4074074074074074,0.2490740740740741,-0.42962962962962964]","[1,1,1,1,1]","[0,0,0,0,0]","[0,0,0,0,0]","[1.7163000000003024,4.664899999999932,5.897200000000197,9.310500000000019,10.807500000000005]","[""blk4"",""blk3"",""blk2"",""blk1""]","[1,1,1,1]",1,0,0,0,0,1,,,,,,
,,,,,,,,INC_J_BEG_010,001,2023-07-20_09h06.32.860,reverse_corsi_task,2023.1.3,Win32,4.997376377,"[[0.25625,0.0975],[0.05875,-0.0575],[0.54,0.03625],[0.16625,0.3825],[-0.35125,0.36625],[-0.01875,0.235],[0.0675,0.07375],[-0.4075,0.11875],[-0.0225,0.395]]",main,"[-0.33425925925925926,0.21851851851851853,0.15462962962962962,0.5175925925925926,0.5166666666666667,0.08518518518518518,0.08148148148148149,0.30462962962962964,0.3416666666666667]","[0.37777777777777777,0.37222222222222223,0.37592592592592594,0.032407407407407406,0.03518518518518519,-0.075,0.03333333333333333,-0.41203703703703703,-0.45185185185185184]","[1,1,1,1,1,1,1,1,1]","[0,0,0,0,0,0,0,0,0]","[0,0,0,0,0,0,0,0,0]","[7.890399999999914,8.876899999999921,9.369300000000294,10.848000000000013,11.33620000000019,12.079300000000273,13.089100000000087,14.578399999999903,15.320800000000276]","[""blk5"",""blk4"",""blk3"",""blk3"",""blk2"",""blk7""]","[0,1,1,1,1]",0,0,0,0,0,1,,,,,,
,,,,,,,,INC_J_BEG_010,001,2023-07-20_09h06.32.860,reverse_corsi_task,2023.1.3,Win32,4.997376377,,,"[-0.35185185185185186,-0.35185185185185186,0.18425925925925926,0.13425925925925927,0.549074074074074,0.537962962962963,0.24351851851851852,0.06944444444444445,0.4111111111111111]","[0.362962962962963,0.362962962962963,0.37777777777777777,0.36944444444444446,0.014814814814814815,0.04814814814814815,0.12222222222222222,-0.044444444444444446,-0.4537037037037037]","[1,1,1,1,1,1,1,1,1]","[0,0,0,0,0,0,0,0,0]","[0,0,0,0,0,0,0,0,0]","[6.404399999999896,6.893800000000283,8.127600000000086,8.61660000000009,9.6062000000002,10.113200000000177,13.113899999999916,14.602700000000198,15.84180000000029]","[""blk5"",""blk5"",""blk4"",""blk4"",""blk3"",""blk3"",""blk1"",""blk2""]","[0,0,1,1,1]",0,1,0,1,0,1,,,,,,
,,,,,,,,INC_J_BEG_010,001,2023-07-20_09h06.32.860,reverse_corsi_task,2023.1.3,Win32,4.997376377,,,,,,,,,,,,,,,,,0,0,0,0,1,
,,,,,,,,INC_J_BEG_010,001,2023-07-20_09h06.32.860,reverse_corsi_task,2023.1.3,Win32,4.997376377,"[[0.16625,0.3825],[-0.485,0.34625],[-0.26625,0.235],[-0.35125,0.36625],[-0.3575,-0.05625],[-0.0225,0.395],[-0.6025,0.0725],[0.28875,0.39875],[0.62875,-0.1825]]",main,"[-0.3574074074074074,-0.3509259259259259,-0.25,-0.4962962962962963,0.17222222222222222,0.4101851851851852]","[-0.026851851851851852,0.37037037037037035,0.225,0.36018518518518516,0.36203703703703705,-0.43148148148148147]","[1,1,1,1,1,1]","[0,0,0,0,0,0]","[0,0,0,0,0,0]","[2.199299999999795,8.060999999999979,9.539399999999887,12.723600000000062,17.11749999999998,18.366399999999857]","[""blk5"",""blk4"",""blk3"",""blk2"",""blk1""]","[1,1,1,1,1]",1,0,0,0,0,1,,,,,,
,,,,,,,,INC_J_BEG_010,001,2023-07-20_09h06.32.860,reverse_corsi_task,2023.1.3,Win32,4.997376377,,,,,,,,,,,,,,,,,1,0,1,0,1,
,,,,,,,,INC_J_BEG_010,001,2023-07-20_09h06.32.860,reverse_corsi_task,2023.1.3,Win32,4.997376377,"[[-0.18625,0.41125],[0.1925,-0.295],[0.4125,-0.1325],[-0.6025,0.0725],[0.62875,-0.1825],[0.365,-0.27625],[-0.68625,-0.225],[-0.26625,0.235],[-0.09875,0.065]]",main,"[0.6462962962962963,-0.6027777777777777,0.37777777777777777,0.18425925925925926,-0.2175925925925926,0.3907407407407407]","[-0.18333333333333332,0.05925925925925926,-0.12407407407407407,-0.2953703703703704,0.39814814814814814,-0.46111111111111114]","[1,1,1,1,1,1]","[0,0,0,0,0,0]","[0,0,0,0,0,0]","[8.7877000000002,14.621800000000292,18.555300000000273,21.242300000000284,22.718300000000283,24.71920000000017]","[""blk5"",""blk4"",""blk3"",""blk2"",""blk1""]","[1,1,1,1,1]",1,0,0,0,0,1,,,,,,
,,,,,,,,INC_J_BEG_010,001,2023-07-20_09h06.32.860,reverse_corsi_task,2023.1.3,Win32,4.997376377,,,,,,,,,,,,,,,,,2,0,2,0,1,
,,,,,,,,INC_J_BEG_010,001,2023-07-20_09h06.32.860,reverse_corsi_task,2023.1.3,Win32,4.997376377,"[[0.05875,-0.0575],[-0.24625,0.04375],[-0.3575,-0.05625],[-0.12125,-0.12625],[0.365,-0.27625],[-0.0225,0.395],[-0.45875,-0.3],[-0.485,0.34625],[-0.35125,0.36625]]",main,"[0.000925925925925926,0.37592592592592594,-0.16296296296296298,-0.325,0.06666666666666667,0.08888888888888889,-0.2388888888888889,0.10740740740740741,0.30833333333333335]","[0.3638888888888889,-0.2824074074074074,-0.14074074074074075,-0.075,-0.053703703703703705,-0.05,0.03981481481481482,-0.06666666666666667,-0.42962962962962964]","[1,1,1,1,1,1,1,1,1]","[0,0,0,0,0,0,0,0,0]","[0,0,0,0,0,0,0,0,0]","[2.692399999999907,4.160799999999824,5.872899999999902,7.0919999999999845,10.770200000000159,12.495499999999993,13.978000000000009,14.967700000000207,15.962700000000154]","[""blk6"",""blk5"",""blk4"",""blk3"",""blk1"",""blk1"",""blk2"",""blk1""]","[0,0,1,1,1,1]",0,0,0,0,0,1,,,,,,
,,,,,,,,INC_J_BEG_010,001,2023-07-20_09h06.32.860,reverse_corsi_task,2023.1.3,Win32,4.997376377,,,"[-0.012962962962962963,0.3388888888888889,-0.11018518518518519,-0.39814814814814814,-0.25,0.06574074074074074,0.43425925925925923,0.4425925925925926]","[0.40185185185185185,-0.25833333333333336,-0.11666666666666667,-0.046296296296296294,0.027777777777777776,-0.022222222222222223,-0.3990740740740741,-0.4398148148148148]","[1,1,1,1,1,1,1,1]","[0,0,0,0,0,0,0,0]","[0,0,0,0,0,0,0,0]","[4.171599999999671,5.397500000000036,6.657899999999927,7.632000000000005,8.621000000000038,9.614599999999655,10.610399999999913,11.105899999999906]","[""blk6"",""blk5"",""blk4"",""blk3"",""blk2"",""blk1""]","[1,1,1,1,1,1]",1,1,0,1,0,1,,,,,,
,,,,,,,,INC_J_BEG_010,001,2023-07-20_09h06.32.860,reverse_corsi_task,2023.1.3,Win32,4.997376377,,,,,,,,,,,,,,,,,0,0,0,0,1,
,,,,,,,,INC_J_BEG_010,001,2023-07-20_09h06.32.860,reverse_corsi_task,2023.1.3,Win32,4.997376377,"[[-0.0225,0.395],[0.19375,-0.17125],[0.62875,-0.1825],[-0.68625,-0.225],[-0.12125,-0.12625],[-0.55125,-0.13375],[0.1925,-0.295],[-0.35125,0.36625],[-0.675,0.29875]]",main,"[-0.5842592592592593,-0.10462962962962963,-0.7037037037037037,0.5990740740740741,-0.025,0.16203703703703703,0.31203703703703706]","[-0.1425925925925926,-0.13055555555555556,-0.21388888888888888,-0.16574074074074074,0.3861111111111111,-0.1574074074074074,-0.43796296296296294]","[1,1,1,1,1,1,1]","[0,0,0,0,0,0,0]","[0,0,0,0,0,0,0]","[10.296900000000392,13.22710000000012,14.449600000000089,15.925700000000177,16.911,20.338900000000365,21.331100000000106]","[""blk6"",""blk5"",""blk4"",""blk3"",""blk1"",""blk2""]","[0,0,1,1,1,1]",0,0,0,0,0,1,,,,,,
,,,,,,,,INC_J_BEG_010,001,2023-07-20_09h06.32.860,reverse_corsi_task,2023.1.3,Win32,4.997376377,,,"[-0.612037037037037,-0.5481481481481482,-0.675,-0.16296296296296298,0.19814814814814816,-0.024074074074074074,0.5740740740740741,0.6027777777777777,0.44166666666666665]","[-0.16203703703703703,-0.16111111111111112,-0.22407407407407406,-0.16296296296296298,-0.1712962962962963,0.4212962962962963,-0.1675925925925926,-0.16574074074074074,-0.4722222222222222]","[1,1,1,1,1,1,1,1,1]","[0,0,0,0,0,0,0,0,0]","[0,0,0,0,0,0,0,0,0]","[9.32139999999987,10.293799999999806,13.227799999999775,14.445399999999893,15.430200000000184,16.661999999999978,17.89749999999998,18.872200000000134,20.35929999999979]","[""blk6"",""blk4"",""blk5"",""blk2"",""blk1"",""blk3""]","[0,0,0,0,0,1]",0,1,0,1,0,1,,,,,,
,,,,,,,,INC_J_BEG_010,001,2023-07-20_09h06.32.860,reverse_corsi_task,2023.1.3,Win32,4.997376377,,,,,,,,,,,,,,,,,1,0,1,0,1,
,,,,,,,,INC_J_BEG_010,001,2023-07-20_09h06.32.860,reverse_corsi_task,2023.1.3,Win32,4.997376377,"[[-0.55125,-0.13375],[0.4125,-0.1325],[-0.3575,-0.05625],[0.30125,-0.0175],[-0.45875,-0.3],[-0.68625,-0.225],[-0.285,-0.27125],[0.62875,-0.1825],[0.19375,-0.17125]]",main,"[-0.7018518518518518,-0.475,0.3101851851851852,-0.33425925925925926,0.4425925925925926,-0.5212962962962963,0.3287037037037037,0.3194444444444444]","[-0.23981481481481481,-0.3,-0.017592592592592594,-0.05925925925925926,-0.13425925925925927,-0.09722222222222222,-0.4842592592592593,-0.475]","[1,1,1,1,1,1,1,1]","[0,0,0,0,0,0,0,0]","[0,0,0,0,0,0,0,0]","[3.9408999999998855,5.168100000000095,8.86870000000016,11.826799999999821,13.295500000000004,14.519499999999994,16.260700000000156,17.243100000000084]","[""blk6"",""blk5"",""blk4"",""blk3"",""blk2"",""blk1""]","[1,1,1,1,1,1]",1,0,0,0,0,1,,,,,,
,,,,,,,,INC_J_BEG_010,001,2023-07-20_09h06.32.860,reverse_corsi_task,2023.1.3,Win32,4.997376377,,,,,,,,,,,,,,,,,2,0,2,0,1,
,,,,,,,,INC_J_BEG_010,001,2023-07-20_09h06.32.860,reverse_corsi_task,2023.1.3,Win32,4.997376377,"[[-0.18625,0.41125],[0.4625,0.35875],[0.19375,-0.17125],[0.1925,-0.295],[-0.485,0.34625],[-0.6025,0.0725],[-0.45875,-0.3],[0.03125,-0.41],[0.365,-0.27625]]",main,"[-0.45740740740740743,-0.6018518518518519,0.18703703703703703,0.1824074074074074,0.4305555555555556,-0.22962962962962963,-0.5055555555555555,0.3851851851851852]","[-0.29444444444444445,0.06851851851851852,-0.2814814814814815,-0.1648148148148148,0.33425925925925926,0.4111111111111111,0.3398148148148148,-0.43425925925925923]","[1,1,1,1,1,1,1,1]","[0,0,0,0,0,0,0,0]","[0,0,0,0,0,0,0,0]","[3.6536000000000968,5.137499999999989,6.6141000000000645,7.599100000000078,8.579000000000008,9.796600000000069,12.020700000000204,13.260800000000245]","[""blk7"",""blk6"",""blk4"",""blk3"",""blk2"",""blk1"",""blk5""]","[0,0,0,0,0,1,1]",0,0,0,0,0,1,,,,,,
,,,,,,,,INC_J_BEG_010,001,2023-07-20_09h06.32.860,reverse_corsi_task,2023.1.3,Win32,4.997376377,,,"[-0.4462962962962963,-0.5953703703703703,-0.5046296296296297,0.16296296296296298,0.18055555555555555,0.462037037037037,-0.20833333333333334,0.412962962962963]","[-0.30833333333333335,0.05648148148148148,0.33611111111111114,-0.31851851851851853,-0.1685185185185185,0.3472222222222222,0.4101851851851852,-0.43796296296296294]","[1,1,1,1,1,1,1,1]","[0,0,0,0,0,0,0,0]","[0,0,0,0,0,0,0,0]","[2.227900000000375,3.4546000000001413,4.933600000000126,6.165800000000331,7.149800000000312,8.380900000000395,9.644600000000139,10.887500000000045]","[""blk7"",""blk6"",""blk5"",""blk4"",""blk3"",""blk2"",""blk1""]","[1,1,1,1,1,1,1]",1,1,0,1,0,1,,,,,,
,,,,,,,,INC_J_BEG_010,001,2023-07-20_09h06.32.860,reverse_corsi_task,2023.1.3,Win32,4.997376377,,,,,,,,,,,,,,,,,0,0,0,0,1,
,,,,,,,,INC_J_BEG_010,001,2023-07-20_09h06.32.860,reverse_corsi_task,2023.1.3,Win32,4.997376377,"[[-0.09875,0.065],[-0.485,0.34625],[0.57875,-0.31375],[0.19375,-0.17125],[-0.675,0.29875],[0.28875,0.39875],[-0.285,-0.27125],[-0.3575,-0.05625],[0.22,0.2425]]",main,"[-0.30092592592592593,0.3037037037037037,-0.6527777777777778,-0.4703703703703704,-0.07037037037037037,0.22314814814814815,0.5935185185185186,0.4546296296296296]","[-0.26851851851851855,0.4074074074074074,0.2851851851851852,0.32407407407407407,0.07685185185185185,-0.13333333333333333,-0.26481481481481484,-0.4638888888888889]","[1,1,1,1,1,1,1,1]","[0,0,0,0,0,0,0,0]","[0,0,0,0,0,0,0,0]","[2.1967000000001917,3.4303999999999064,4.6684999999999945,10.326700000000187,11.064399999999864,12.045899999999904,13.023799999999824,14.014200000000187]","[""blk7"",""blk6"",""blk5"",""blk2"",""blk1"",""blk4"",""blk3""]","[0,0,0,0,1,1,1]",0,0,0,0,0,1,,,,,,
,,,,,,,,INC_J_BEG_010,001,2023-07-20_09h06.32.860,reverse_corsi_task,2023.1.3,Win32,4.997376377,,,"[-0.2796296296296296,0.29444444444444445,-0.6981481481481482,-0.4787037037037037,0.21296296296296297,-0.16296296296296298,0.5842592592592593,0.1962962962962963,0.3527777777777778]","[-0.2824074074074074,0.4009259259259259,0.2953703703703704,0.32685185185185184,-0.17407407407407408,0.07777777777777778,-0.31666666666666665,0.24259259259259258,-0.4425925925925926]","[1,1,1,1,1,1,1,1,1]","[0,0,0,0,0,0,0,0,0]","[0,0,0,0,0,0,0,0,0]","[0.735700000000179,1.9652000000001522,2.951400000000376,3.9324000000003707,8.611400000000344,9.841600000000085,11.31820000000016,15.21890000000036,16.208700000000192]","[""blk7"",""blk6"",""blk5"",""blk2"",""blk4"",""blk3"",""blk9""]","[0,0,0,1,0,0,0,0]",0,1,0,1,0,1,,,,,,
,,,,,,,,INC_J_BEG_010,001,2023-07-20_09h06.32.860,reverse_corsi_task,2023.1.3,Win32,4.997376377,,,,,,,,,,,,,,,,,1,0,1,0,1,
,,,,,,,,INC_J_BEG_010,001,2023-07-20_09h06.32.860,reverse_corsi_task,2023.1.3,Win32,4.997376377,"[[0.4625,0.35875],[-0.18625,0.41125],[-0.01875,0.235],[-0.4075,0.11875],[-0.09875,0.065],[-0.6025,0.0725],[-0.55125,-0.13375],[0.28875,0.39875],[0.22,0.2425]]",main,"[0.45185185185185184,-0.3537037037037037,-0.39351851851851855,-0.1398148148148148,-0.05092592592592592,0.2111111111111111,0.25555555555555554,-0.2222222222222222,-0.5833333333333334,-0.5120370370370371,0.4064814814814815,0.4027777777777778]","[0.337037037037037,0.11574074074074074,0.1111111111111111,0.05,0.23703703703703705,0.2324074074074074,0.39351851851851855,0.39444444444444443,0.06296296296296296,-0.1398148148148148,-0.3861111111111111,-0.4537037037037037]","[1,1,1,1,1,1,1,1,1,1,1,1]","[0,0,0,0,0,0,0,0,0,0,0,0]","[0,0,0,0,0,0,0,0,0,0,0,0]","[0.9786000000000854,2.454999999999984,2.944999999999993,3.438000000000045,4.178200000000231,4.911999999999978,5.645100000000127,6.378200000000163,7.373499999999979,8.11620000000022,9.109200000000158,9.607000000000028]","[""blk1"",""blk4"",""blk5"",""blk3"",""blk9"",""blk8"",""blk2"",""blk6"",""blk7""]","[0,0,0,0,0,0,0,0,0]",0,0,0,0,0,1,,,,,,6
,,,,,,,,INC_J_BEG_010,001,2023-07-20_09h06.32.860,reverse_corsi_task,2023.1.3,Win32,4.997376377,,,"[-0.5435185185185185,-0.587037037037037,-0.14074074074074075,-0.44537037037037036,-0.18796296296296297,0.5175925925925926,0.425,0.4722222222222222,0.47685185185185186,0.4101851851851852]","[-0.1398148148148148,0.06666666666666667,0.06481481481481481,0.10555555555555556,0.4046296296296296,0.3824074074074074,0.35,0.34814814814814815,-0.24537037037037038,-0.4351851851851852]","[1,1,1,1,1,1,1,1,1,1]","[0,0,0,0,0,0,0,0,0,0]","[0,0,0,0,0,0,0,0,0,0]","[0.7338999999999487,1.716899999999896,2.7058999999999287,3.442800000000261,4.42630000000031,5.6580000000000155,6.396200000000249,6.888200000000211,7.884600000000091,8.38080000000025]","[""blk7"",""blk6"",""blk5"",""blk4"",""blk2"",""blk1"",""blk1""]","[1,1,0,0,0,0]",0,1,0,1,0,1,,,,,,6
,,,,,,,,INC_J_BEG_010,001,2023-07-20_09h06.32.860,reverse_corsi_task,2023.1.3,Win32,4.997376377,,,,,,,,,,,,,,,,,2,0,2,0,1,
,,,,,,,,INC_J_BEG_010,001,2023-07-20_09h06.32.860,reverse_corsi_task,2023.1.3,Win32,4.997376377,,,,,,,,,,,,,,,,,,,,,,
