key_resp.keys,key_resp.rt,key_resp.duration,instruct_loop.thisRepN,instruct_loop.thisTrialN,instruct_loop.thisN,instruct_loop.thisIndex,instruct_loop.ran,participant*,session,date,expName,psychopyVersion,OS,frameRate,positions,trial_type,corsi_mouse.x,corsi_mouse.y,corsi_mouse.leftButton,corsi_mouse.midButton,corsi_mouse.rightButton,corsi_mouse.time,corsi_mouse.clicked_name,correct_list,corsi_correct,repeat_loop.thisRepN,repeat_loop.thisTrialN,repeat_loop.thisN,repeat_loop.thisIndex,repeat_loop.ran,corsi_trials.thisRepN,corsi_trials.thisTrialN,corsi_trials.thisN,corsi_trials.thisIndex,corsi_trials.ran,final_corsi_span
space,23.5804,0.0007,0,0,0,0,1,INC_J_ADV_05,001,2023-07-20_09h21.09.482,reverse_corsi_task,2023.1.3,Win32,4.613993319,,,,,,,,,,,,,,,,,,,,,,
,,,,,,,,INC_J_ADV_05,001,2023-07-20_09h21.09.482,reverse_corsi_task,2023.1.3,Win32,4.613993319,"[[-0.285,-0.27125],[-0.09875,0.065],[0.05875,-0.0575],[0.19375,-0.17125],[-0.675,0.29875],[0.45375,0.175],[-0.485,0.34625],[0.22,0.2425],[-0.16125,-0.28]]",practice,"[-0.10277777777777777,-0.275,0.375]","[0.05648148148148148,-0.23796296296296296,-0.44351851851851853]","[1,1,1]","[0,0,0]","[0,0,0]","[2.457000000000008,5.6355000000000075,7.364600000000095]","[""blk2"",""blk1""]","[1,1]",1,0,0,0,0,1,,,,,,
,,,,,,,,INC_J_ADV_05,001,2023-07-20_09h21.09.482,reverse_corsi_task,2023.1.3,Win32,4.613993319,,,,,,,,,,,,,,,,,0,0,0,0,1,
,,,,,,,,INC_J_ADV_05,001,2023-07-20_09h21.09.482,reverse_corsi_task,2023.1.3,Win32,4.613993319,"[[0.28875,0.39875],[-0.09875,0.065],[-0.45875,-0.3],[-0.485,0.34625],[-0.16125,-0.28],[0.22,0.2425],[0.6375,0.27375],[0.1925,-0.295],[0.54,0.03625]]",practice,"[-0.08518518518518518,0.2861111111111111,0.41203703703703703]","[0.07962962962962963,0.3731481481481482,-0.4675925925925926]","[1,1,1]","[0,0,0]","[0,0,0]","[2.6783000000002772,4.14670000000018,5.62530000000028]","[""blk2"",""blk1""]","[1,1]",1,0,0,0,0,1,,,,,,
,,,,,,,,INC_J_ADV_05,001,2023-07-20_09h21.09.482,reverse_corsi_task,2023.1.3,Win32,4.613993319,,,,,,,,,,,,,,,,,1,0,1,0,1,
,,,,,,,,INC_J_ADV_05,001,2023-07-20_09h21.09.482,reverse_corsi_task,2023.1.3,Win32,4.613993319,"[[-0.18625,0.41125],[-0.45875,-0.3],[-0.01875,0.235],[-0.55125,-0.13375],[0.6375,0.27375],[0.1925,-0.295],[-0.285,-0.27125],[0.54,0.03625],[-0.675,0.29875]]",practice,"[-0.03425925925925926,-0.4425925925925926,-0.18703703703703703,0.4287037037037037]","[0.22592592592592592,-0.2740740740740741,0.4203703703703704,-0.4666666666666667]","[1,1,1,1]","[0,0,0,0]","[0,0,0,0]","[5.63860000000011,6.870200000000182,9.321600000000103,17.992300000000284]","[""blk3"",""blk2"",""blk1""]","[1,1,1]",1,0,0,0,0,1,,,,,,
,,,,,,,,INC_J_ADV_05,001,2023-07-20_09h21.09.482,reverse_corsi_task,2023.1.3,Win32,4.613993319,,,,,,,,,,,,,,,,,0,0,0,0,1,
,,,,,,,,INC_J_ADV_05,001,2023-07-20_09h21.09.482,reverse_corsi_task,2023.1.3,Win32,4.613993319,"[[0.05875,-0.0575],[0.25625,0.0975],[-0.6025,0.0725],[-0.485,0.34625],[0.6375,0.27375],[-0.24625,0.04375],[0.45375,0.175],[-0.09875,0.065],[-0.68625,-0.225]]",practice,"[-0.5935185185185186,0.21203703703703702,0.08518518518518518,0.3907407407407407]","[0.06759259259259259,0.09722222222222222,-0.0787037037037037,-0.4648148148148148]","[1,1,1,1]","[0,0,0,0]","[0,0,0,0]","[3.172399999999925,5.376299999999816,6.845199999999721,12.502099999999643]","[""blk3"",""blk2"",""blk1""]","[1,1,1]",1,0,0,0,0,1,,,,,,
,,,,,,,,INC_J_ADV_05,001,2023-07-20_09h21.09.482,reverse_corsi_task,2023.1.3,Win32,4.613993319,,,,,,,,,,,,,,,,,1,0,1,0,1,
space,4.4598,0.0005,0,0,0,0,1,INC_J_ADV_05,001,2023-07-20_09h21.09.482,reverse_corsi_task,2023.1.3,Win32,4.613993319,,,,,,,,,,,,,,,,,,,,,,
,,,,,,,,INC_J_ADV_05,001,2023-07-20_09h21.09.482,reverse_corsi_task,2023.1.3,Win32,4.613993319,"[[-0.35125,0.36625],[0.4125,-0.1325],[0.28875,0.39875],[-0.285,-0.27125],[-0.16125,-0.28],[-0.3575,-0.05625],[-0.01125,-0.295],[-0.0225,0.395],[-0.09875,0.065]]",main,"[0.29259259259259257,0.4027777777777778,-0.31296296296296294,0.42685185185185187]","[0.39166666666666666,-0.11574074074074074,0.3472222222222222,-0.46111111111111114]","[1,1,1,1]","[0,0,0,0]","[0,0,0,0]","[5.140299999999826,6.380000000000024,7.846600000000109,23.845600000000104]","[""blk3"",""blk2"",""blk1""]","[1,1,1]",1,0,0,0,0,1,,,,,,
,,,,,,,,INC_J_ADV_05,001,2023-07-20_09h21.09.482,reverse_corsi_task,2023.1.3,Win32,4.613993319,,,,,,,,,,,,,,,,,0,0,0,0,1,
,,,,,,,,INC_J_ADV_05,001,2023-07-20_09h21.09.482,reverse_corsi_task,2023.1.3,Win32,4.613993319,"[[-0.68625,-0.225],[0.4125,-0.1325],[-0.485,0.34625],[-0.16125,-0.28],[-0.12125,-0.12625],[-0.3575,-0.05625],[-0.45875,-0.3],[0.54,0.03625],[0.1925,-0.295]]",main,"[-0.5083333333333333,0.41944444444444445,-0.649074074074074,0.37777777777777777]","[0.37962962962962965,-0.1425925925925926,-0.2324074074074074,-0.44907407407407407]","[1,1,1,1]","[0,0,0,0]","[0,0,0,0]","[1.7041999999997017,3.173799999999801,4.642899999999912,6.126199999999699]","[""blk3"",""blk2"",""blk1""]","[1,1,1]",1,0,0,0,0,1,,,,,,
,,,,,,,,INC_J_ADV_05,001,2023-07-20_09h21.09.482,reverse_corsi_task,2023.1.3,Win32,4.613993319,"[[0.57875,-0.31375],[0.0675,0.07375],[0.365,-0.27625],[0.19375,-0.17125],[0.05875,-0.0575],[-0.485,0.34625],[0.6375,0.27375],[-0.55125,-0.13375],[-0.09875,0.065]]",main,"[0.19444444444444445,0.3861111111111111,0.0824074074074074,0.5925925925925926,0.39537037037037037]","[-0.1675925925925926,-0.2972222222222222,0.06018518518518518,-0.31574074074074077,-0.45555555555555555]","[1,1,1,1,1]","[0,0,0,0,0]","[0,0,0,0,0]","[0.7345000000000255,1.9590000000000032,3.1833999999999207,7.811899999999923,15.68510000000012]","[""blk4"",""blk3"",""blk2"",""blk1""]","[1,1,1,1]",1,0,0,0,0,1,,,,,,
,,,,,,,,INC_J_ADV_05,001,2023-07-20_09h21.09.482,reverse_corsi_task,2023.1.3,Win32,4.613993319,,,,,,,,,,,,,,,,,0,0,0,0,1,
,,,,,,,,INC_J_ADV_05,001,2023-07-20_09h21.09.482,reverse_corsi_task,2023.1.3,Win32,4.613993319,"[[0.28875,0.39875],[0.0675,0.07375],[-0.285,-0.27125],[0.365,-0.27625],[0.57875,-0.31375],[-0.45875,-0.3],[0.16625,0.3825],[-0.55125,-0.13375],[-0.485,0.34625]]",main,"[0.34444444444444444,-0.26666666666666666,0.05185185185185185,0.2777777777777778,0.43425925925925923]","[-0.2722222222222222,-0.2537037037037037,0.07592592592592592,0.40185185185185185,-0.4351851851851852]","[1,1,1,1,1]","[0,0,0,0,0]","[0,0,0,0,0]","[0.9797999999998126,2.203799999999802,6.6163999999999135,8.573200000000185,10.058600000000098]","[""blk4"",""blk3"",""blk2"",""blk1""]","[1,1,1,1]",1,0,0,0,0,1,,,,,,
,,,,,,,,INC_J_ADV_05,001,2023-07-20_09h21.09.482,reverse_corsi_task,2023.1.3,Win32,4.613993319,"[[-0.16125,-0.28],[0.16625,0.3825],[0.05875,-0.0575],[-0.4075,0.11875],[0.19375,-0.17125],[-0.09875,0.065],[0.25625,0.0975],[0.28875,0.39875],[0.30125,-0.0175]]",main,"[0.20462962962962963,-0.39166666666666666,0.08981481481481482,0.16574074074074074,-0.13518518518518519,0.3574074074074074]","[-0.16574074074074074,0.11481481481481481,-0.04259259259259259,0.3592592592592593,-0.27685185185185185,-0.44166666666666665]","[1,1,1,1,1,1]","[0,0,0,0,0,0]","[0,0,0,0,0,0]","[1.2199999999999989,2.9288999999999135,4.396899999999903,7.081000000000017,8.799000000000035,11.509599999999637]","[""blk5"",""blk4"",""blk3"",""blk2"",""blk1""]","[1,1,1,1,1]",1,0,0,0,0,1,,,,,,
,,,,,,,,INC_J_ADV_05,001,2023-07-20_09h21.09.482,reverse_corsi_task,2023.1.3,Win32,4.613993319,,,,,,,,,,,,,,,,,0,0,0,0,1,
,,,,,,,,INC_J_ADV_05,001,2023-07-20_09h21.09.482,reverse_corsi_task,2023.1.3,Win32,4.613993319,"[[-0.4075,0.11875],[-0.485,0.34625],[0.62875,-0.1825],[0.4125,-0.1325],[0.54,0.03625],[-0.6025,0.0725],[0.05875,-0.0575],[-0.55125,-0.13375],[-0.3575,-0.05625]]",main,"[0.5546296296296296,0.44074074074074077,0.675,-0.46111111111111114,-0.46111111111111114,-0.4185185185185185,0.3388888888888889]","[0.04722222222222222,-0.12777777777777777,-0.21296296296296297,0.33425925925925926,0.33425925925925926,0.1,-0.4388888888888889]","[1,1,1,1,1,1,1]","[0,0,0,0,0,0,0]","[0,0,0,0,0,0,0]","[0.9735000000000014,2.1978000000002567,3.4177000000001954,5.128200000000163,5.867899999999906,7.35489999999993,9.085200000000214]","[""blk5"",""blk4"",""blk3"",""blk2"",""blk2"",""blk1""]","[1,1,1,1,1]",1,0,0,0,0,1,,,,,,
,,,,,,,,INC_J_ADV_05,001,2023-07-20_09h21.09.482,reverse_corsi_task,2023.1.3,Win32,4.613993319,"[[0.45375,0.175],[-0.18625,0.41125],[-0.01875,0.235],[0.1925,-0.295],[-0.0225,0.395],[0.6375,0.27375],[-0.09875,0.065],[-0.3575,-0.05625],[0.57875,-0.31375]]",main,"[0.6055555555555555,0.000925925925925926,0.18518518518518517,-0.014814814814814815,-0.1425925925925926,0.4564814814814815,0.40555555555555556]","[0.28425925925925927,0.412962962962963,-0.27037037037037037,0.22407407407407406,0.40185185185185185,0.16574074074074074,-0.462037037037037]","[1,1,1,1,1,1,1]","[0,0,0,0,0,0,0]","[0,0,0,0,0,0,0]","[0.9973999999999137,2.4632999999997764,3.93589999999989,6.128499999999974,7.1126000000001,8.574999999999989,9.8125]","[""blk6"",""blk5"",""blk4"",""blk3"",""blk2"",""blk1""]","[1,1,1,1,1,1]",1,0,0,0,0,1,,,,,,
,,,,,,,,INC_J_ADV_05,001,2023-07-20_09h21.09.482,reverse_corsi_task,2023.1.3,Win32,4.613993319,,,,,,,,,,,,,,,,,0,0,0,0,1,
,,,,,,,,INC_J_ADV_05,001,2023-07-20_09h21.09.482,reverse_corsi_task,2023.1.3,Win32,4.613993319,"[[0.62875,-0.1825],[-0.4075,0.11875],[-0.35125,0.36625],[-0.18625,0.41125],[-0.6025,0.0725],[-0.675,0.29875],[0.57875,-0.31375],[-0.12125,-0.12625],[0.4625,0.35875]]",main,"[-0.6638888888888889,-0.6324074074074074,-0.20833333333333334,-0.3768518518518518,-0.3388888888888889,0.5944444444444444,0.37592592592592594]","[0.2861111111111111,0.09444444444444444,0.41574074074074074,0.10185185185185185,0.3490740740740741,-0.1685185185185185,-0.4648148148148148]","[1,1,1,1,1,1,1]","[0,0,0,0,0,0,0]","[0,0,0,0,0,0,0]","[0.9755000000000109,3.665199999999743,5.135199999999713,8.555000000000007,10.27069999999975,11.73829999999981,12.975399999999922]","[""blk6"",""blk5"",""blk4"",""blk2"",""blk3"",""blk1""]","[1,0,0,1,1,1]",0,0,0,0,0,1,,,,,,
,,,,,,,,INC_J_ADV_05,001,2023-07-20_09h21.09.482,reverse_corsi_task,2023.1.3,Win32,4.613993319,,,"[-0.6777777777777778,-0.6194444444444445,-0.19722222222222222,-0.3388888888888889,-0.40370370370370373,0.612037037037037,0.4166666666666667]","[0.2861111111111111,0.09814814814814815,0.4046296296296296,0.34629629629629627,0.12314814814814815,-0.16203703703703703,-0.44722222222222224]","[1,1,1,1,1,1,1]","[0,0,0,0,0,0,0]","[0,0,0,0,0,0,0]","[0.9762999999998101,2.4399999999999977,4.890299999999797,8.322599999999625,9.302599999999643,10.768799999999828,13.00069999999971]","[""blk6"",""blk5"",""blk4"",""blk3"",""blk2"",""blk1""]","[1,1,1,1,1,1]",1,1,0,1,0,1,,,,,,
,,,,,,,,INC_J_ADV_05,001,2023-07-20_09h21.09.482,reverse_corsi_task,2023.1.3,Win32,4.613993319,"[[-0.18625,0.41125],[0.365,-0.27625],[-0.12125,-0.12625],[-0.26625,0.235],[0.4625,0.35875],[0.16625,0.3825],[0.54,0.03625],[-0.16125,-0.28],[0.28875,0.39875]]",main,"[0.5833333333333334,0.17222222222222222,0.5064814814814815,-0.23703703703703705,-0.13703703703703704,0.35648148148148145,-0.14166666666666666,0.34629629629629627]","[0.04259259259259259,0.37222222222222223,0.34444444444444444,0.2361111111111111,-0.1361111111111111,-0.2657407407407407,0.40925925925925927,-0.44907407407407407]","[1,1,1,1,1,1,1,1]","[0,0,0,0,0,0,0,0]","[0,0,0,0,0,0,0,0]","[0.9755000000000109,3.9039999999999964,5.6073000000002935,7.079499999999996,8.541999999999973,9.768700000000194,11.484100000000069,13.210300000000302]","[""blk7"",""blk6"",""blk5"",""blk4"",""blk3"",""blk2"",""blk1""]","[1,1,1,1,1,1,1]",1,0,0,0,0,1,,,,,,
,,,,,,,,INC_J_ADV_05,001,2023-07-20_09h21.09.482,reverse_corsi_task,2023.1.3,Win32,4.613993319,,,,,,,,,,,,,,,,,0,0,0,0,1,
,,,,,,,,INC_J_ADV_05,001,2023-07-20_09h21.09.482,reverse_corsi_task,2023.1.3,Win32,4.613993319,"[[0.25625,0.0975],[0.6375,0.27375],[0.57875,-0.31375],[-0.01125,-0.295],[0.62875,-0.1825],[-0.26625,0.235],[0.0675,0.07375],[0.45375,0.175],[-0.09875,0.065]]",main,"[0.0787037037037037,-0.2361111111111111,0.5953703703703703,-0.03333333333333333,0.5537037037037037,0.6370370370370371,0.3,0.387037037037037]","[0.06759259259259259,0.2361111111111111,-0.15833333333333333,-0.2861111111111111,-0.3074074074074074,0.28055555555555556,0.08425925925925926,-0.44907407407407407]","[1,1,1,1,1,1,1,1]","[0,0,0,0,0,0,0,0]","[0,0,0,0,0,0,0,0]","[1.7137000000001876,3.4203999999999155,4.8867000000001894,6.1127000000001885,7.5747999999998115,9.040899999999908,10.504799999999818,14.208200000000147]","[""blk7"",""blk6"",""blk5"",""blk4"",""blk3"",""blk2"",""blk1""]","[1,1,1,1,1,1,1]",1,0,0,0,0,1,,,,,,
,,,,,,,,INC_J_ADV_05,001,2023-07-20_09h21.09.482,reverse_corsi_task,2023.1.3,Win32,4.613993319,"[[0.19375,-0.17125],[-0.0225,0.395],[0.54,0.03625],[-0.01875,0.235],[-0.01125,-0.295],[-0.55125,-0.13375],[-0.675,0.29875],[-0.3575,-0.05625],[-0.285,-0.27125]]",main,"[-0.36666666666666664,-0.6537037037037037,-0.5546296296296296,0.17037037037037037,-0.011111111111111112,-0.037037037037037035,0.49166666666666664,0.018518518518518517,0.38333333333333336]","[-0.04722222222222222,0.30092592592592593,-0.09907407407407408,-0.16296296296296298,0.38425925925925924,0.1935185185185185,0.04537037037037037,-0.30277777777777776,-0.4583333333333333]","[1,1,1,1,1,1,1,1,1]","[0,0,0,0,0,0,0,0,0]","[0,0,0,0,0,0,0,0,0]","[1.2267999999997983,2.450999999999965,4.8974999999999795,6.37379999999979,7.594599999999616,8.812999999999988,10.036699999999712,11.502999999999986,12.49109999999962]","[""blk8"",""blk7"",""blk6"",""blk1"",""blk2"",""blk4"",""blk3"",""blk5""]","[0,0,0,0,0,1,1,1]",0,0,0,0,0,1,,,,,,
,,,,,,,,INC_J_ADV_05,001,2023-07-20_09h21.09.482,reverse_corsi_task,2023.1.3,Win32,4.613993319,,,"[-0.38425925925925924,-0.7046296296296296,-0.549074074074074,0.004629629629629629,-0.013888888888888888,0.22685185185185186,-0.05277777777777778,0.5351851851851852,0.41944444444444445]","[-0.05648148148148148,0.29444444444444445,-0.1037037037037037,-0.32314814814814813,0.3824074074074074,-0.15648148148148147,0.2351851851851852,0.02962962962962963,-0.44907407407407407]","[1,1,1,1,1,1,1,1,1]","[0,0,0,0,0,0,0,0,0]","[0,0,0,0,0,0,0,0,0]","[5.653100000000109,7.121200000000158,9.80620000000016,11.274299999999812,18.634000000000015,21.08220000000017,22.800299999999822,25.231399999999894,27.45989999999989]","[""blk8"",""blk7"",""blk6"",""blk5"",""blk2"",""blk1"",""blk4"",""blk3""]","[0,0,0,0,1,1,1,1]",0,1,0,1,0,1,,,,,,
,,,,,,,,INC_J_ADV_05,001,2023-07-20_09h21.09.482,reverse_corsi_task,2023.1.3,Win32,4.613993319,,,,,,,,,,,,,,,,,0,0,0,0,1,
,,,,,,,,INC_J_ADV_05,001,2023-07-20_09h21.09.482,reverse_corsi_task,2023.1.3,Win32,4.613993319,"[[0.62875,-0.1825],[-0.55125,-0.13375],[0.54,0.03625],[0.6375,0.27375],[-0.26625,0.235],[-0.285,-0.27125],[0.03125,-0.41],[-0.18625,0.41125],[0.16625,0.3825]]",main,"[-0.16018518518518518,-0.017592592592592594,-0.28055555555555556,-0.2611111111111111,0.6064814814814815,-0.6083333333333333,-0.5916666666666667,0.6194444444444445,0.5537037037037037,0.44722222222222224]","[0.37222222222222223,-0.3925925925925926,-0.2759259259259259,0.21666666666666667,0.2564814814814815,-0.1675925925925926,-0.1574074074074074,-0.1675925925925926,0.006481481481481481,-0.4759259259259259]","[1,1,1,1,1,1,1,1,1,1]","[0,0,0,0,0,0,0,0,0,0]","[0,0,0,0,0,0,0,0,0,0]","[1.9471000000000913,3.413200000000188,5.858600000000081,7.088900000000365,8.073300000000302,9.79380000000026,11.4996000000001,12.96960000000007,14.190200000000175,15.425900000000354]","[""blk8"",""blk7"",""blk6"",""blk5"",""blk4"",""blk2"",""blk1"",""blk3""]","[0,0,0,1,1,1,1,1]",0,0,0,0,0,1,,,,,,7
,,,,,,,,INC_J_ADV_05,001,2023-07-20_09h21.09.482,reverse_corsi_task,2023.1.3,Win32,4.613993319,,,"[-0.22314814814814815,0.003703703703703704,-0.28703703703703703,-0.2712962962962963,0.5361111111111111,-0.5083333333333333,0.6287037037037037,0.17685185185185184,0.4527777777777778]","[0.4046296296296296,-0.387037037037037,-0.23796296296296296,0.2222222222222222,0.05462962962962963,-0.14074074074074075,-0.17592592592592593,0.37592592592592594,-0.42962962962962964]","[1,1,1,1,1,1,1,1,1]","[0,0,0,0,0,0,0,0,0]","[0,0,0,0,0,0,0,0,0]","[0.9801000000001068,2.4519000000003643,17.411,18.63260000000014,30.359300000000303,31.8357000000002,33.29840000000041,41.19150000000002,42.43000000000001]","[""blk8"",""blk7"",""blk6"",""blk5"",""blk3"",""blk2"",""blk1"",""blk9""]","[0,0,0,0,1,1,1,1]",0,1,0,1,0,1,,,,,,7
,,,,,,,,INC_J_ADV_05,001,2023-07-20_09h21.09.482,reverse_corsi_task,2023.1.3,Win32,4.613993319,,,,,,,,,,,,,,,,,,,,,,
