key_resp.keys,key_resp.rt,key_resp_2.keys,key_resp_2.rt,key_resp_3.keys,key_resp_3.corr,key_resp_3.rt,trials.thisRepN,trials.thisTrialN,trials.thisN,trials.thisIndex,trials.ran,Word,Experiment,root_syllable,phonemes_firstsyllable,spatial_verb,Number_of_morphemes,lexical_freq,lex_freq_lexesp,Item_Type,list,wav,CorrResp,CorrRespNumb,participant,date,expName,psychopyVersion,OS,frameRate,key_resp_4.keys,key_resp_4.rt,key_resp_6.keys,key_resp_6.corr,key_resp_6.rt,trials_2.thisRepN,trials_2.thisTrialN,trials_2.thisN,trials_2.thisIndex,trials_2.ran,CorRespNumb,key_resp_5.keys,key_resp_5.rt
space,18.9477,y,1.6459,1,1,1.496,0,0,0,0,1,casita,practica,NA,NA,NA,NA,NA,NA,NA,NA,casita.wav,left,1,ADV_EN_30,2023-09-06_14h24.57.284,auditory_ldt_2023_esp_list2,2021.1.1,Win32,59.96641881,,,,,,,,,,,,,
,,,,1,1,1.4174,0,1,1,1,1,acabar,practica,NA,NA,NA,NA,NA,NA,NA,NA,acabar.wav,left,1,ADV_EN_30,2023-09-06_14h24.57.284,auditory_ldt_2023_esp_list2,2021.1.1,Win32,59.96641881,,,,,,,,,,,,,
,,,,0,1,5.9355,0,2,2,2,1,arujar,practica,NA,NA,NA,NA,NA,NA,NA,NA,arujar.wav,right,0,ADV_EN_30,2023-09-06_14h24.57.284,auditory_ldt_2023_esp_list2,2021.1.1,Win32,59.96641881,,,,,,,,,,,,,
,,,,1,1,0.9182,0,3,3,3,1,gatito,practica,NA,NA,NA,NA,NA,NA,NA,NA,gatito.wav,left,1,ADV_EN_30,2023-09-06_14h24.57.284,auditory_ldt_2023_esp_list2,2021.1.1,Win32,59.96641881,,,,,,,,,,,,,
,,,,0,1,1.9257,0,4,4,4,1,deslopar,practica,NA,NA,NA,NA,NA,NA,NA,NA,deslopar.wav,right,0,ADV_EN_30,2023-09-06_14h24.57.284,auditory_ldt_2023_esp_list2,2021.1.1,Win32,59.96641881,,,,,,,,,,,,,
,,,,0,1,0.8058,0,5,5,5,1,masuto,practica,NA,NA,NA,NA,NA,NA,NA,NA,masuto.wav,right,0,ADV_EN_30,2023-09-06_14h24.57.284,auditory_ldt_2023_esp_list2,2021.1.1,Win32,59.96641881,,,,,,,,,,,,,
,,,,,,,,,,,,solcito,morfosyllable,coincidente,3,NA,NA,NA,NA,word,"1,2and3",solcito.wav,left,,ADV_EN_30,2023-09-06_14h24.57.284,auditory_ldt_2023_esp_list2,2021.1.1,Win32,59.96641881,k,3.0534,1,1,1.0699,0,0,0,0,1,1,,
,,,,,,,,,,,,descungiar,visuospatial,NA,NA,NA,NA,NA,NA,pseudoword,"1,2and3",descungiar.wav,right,,ADV_EN_30,2023-09-06_14h24.57.284,auditory_ldt_2023_esp_list2,2021.1.1,Win32,59.96641881,,,1,0,1.9964,0,1,1,1,1,0,,
,,,,,,,,,,,,borsuto,morfosyllable,NA,NA,NA,NA,NA,NA,pseudoword,"1,2and3",borsuto.wav,right,,ADV_EN_30,2023-09-06_14h24.57.284,auditory_ldt_2023_esp_list2,2021.1.1,Win32,59.96641881,,,0,1,0.9748,0,2,2,2,1,0,,
,,,,,,,,,,,,apartar,visuospatial,NA,NA,yes,NA,NA,NA,word,"1,2and3",apartar.wav,left,,ADV_EN_30,2023-09-06_14h24.57.284,auditory_ldt_2023_esp_list2,2021.1.1,Win32,59.96641881,,,1,1,4.9376,0,3,3,3,1,1,,
,,,,,,,,,,,,vesuto,morfosyllable,NA,NA,NA,NA,NA,NA,pseudoword,"1,2and3",vesuto.wav,right,,ADV_EN_30,2023-09-06_14h24.57.284,auditory_ldt_2023_esp_list2,2021.1.1,Win32,59.96641881,,,0,1,1.1957,0,4,4,4,1,0,,
,,,,,,,,,,,,ardia,InflectionalVerbs,NA,NA,NA,2,Low,3.38,word,2,ardia.wav,left,,ADV_EN_30,2023-09-06_14h24.57.284,auditory_ldt_2023_esp_list2,2021.1.1,Win32,59.96641881,,,1,1,1.9687,0,5,5,5,1,1,,
,,,,,,,,,,,,seclia,InflectionalVerbs,NA,NA,NA,NA,NA,NA,pseudoword,2,seclia.wav,right,,ADV_EN_30,2023-09-06_14h24.57.284,auditory_ldt_2023_esp_list2,2021.1.1,Win32,59.96641881,,,0,1,2.6377,0,6,6,6,1,0,,
,,,,,,,,,,,,descansar,visuospatial,NA,NA,no,NA,NA,NA,word,"1,2and3",descansar.wav,left,,ADV_EN_30,2023-09-06_14h24.57.284,auditory_ldt_2023_esp_list2,2021.1.1,Win32,59.96641881,,,1,1,1.2701,0,7,7,7,1,1,,
,,,,,,,,,,,,retuto,morfosyllable,NA,NA,NA,NA,NA,NA,pseudoword,"1,2and3",retuto.wav,right,,ADV_EN_30,2023-09-06_14h24.57.284,auditory_ldt_2023_esp_list2,2021.1.1,Win32,59.96641881,,,0,1,1.1893,0,8,8,8,1,0,,
,,,,,,,,,,,,remuta,morfosyllable,NA,NA,NA,NA,NA,NA,pseudoword,"1,2and3",remuta.wav,right,,ADV_EN_30,2023-09-06_14h24.57.284,auditory_ldt_2023_esp_list2,2021.1.1,Win32,59.96641881,,,1,0,2.9519,0,9,9,9,1,0,,
,,,,,,,,,,,,abordar,visuospatial,NA,NA,yes,NA,NA,NA,word,"1,2and3",abordar.wav,left,,ADV_EN_30,2023-09-06_14h24.57.284,auditory_ldt_2023_esp_list2,2021.1.1,Win32,59.96641881,,,1,1,0.8963,0,10,10,10,1,1,,
,,,,,,,,,,,,galsuto,morfosyllable,NA,NA,NA,NA,NA,NA,pseudoword,"1,2and3",galsuto.wav,right,,ADV_EN_30,2023-09-06_14h24.57.284,auditory_ldt_2023_esp_list2,2021.1.1,Win32,59.96641881,,,0,1,0.821,0,11,11,11,1,0,,
,,,,,,,,,,,,carrito,morfosyllable,diferente,NA,NA,NA,NA,NA,word,"1,2and3",carrito.wav,left,,ADV_EN_30,2023-09-06_14h24.57.284,auditory_ldt_2023_esp_list2,2021.1.1,Win32,59.96641881,,,1,1,0.7238,0,12,12,12,1,1,,
,,,,,,,,,,,,perdias,InflectionalVerbs,NA,NA,NA,3,High,78.87,word,2,perdias.wav,left,,ADV_EN_30,2023-09-06_14h24.57.284,auditory_ldt_2023_esp_list2,2021.1.1,Win32,59.96641881,,,0,0,1.483,0,13,13,13,1,1,,
,,,,,,,,,,,,librito,morfosyllable,diferente,NA,NA,NA,NA,NA,word,"1,2and3",librito.wav,left,,ADV_EN_30,2023-09-06_14h24.57.284,auditory_ldt_2023_esp_list2,2021.1.1,Win32,59.96641881,,,1,1,0.6209,0,14,14,14,1,1,,
,,,,,,,,,,,,vasito,morfosyllable,diferente,NA,NA,NA,NA,NA,word,"1,2and3",vasito.wav,left,,ADV_EN_30,2023-09-06_14h24.57.284,auditory_ldt_2023_esp_list2,2021.1.1,Win32,59.96641881,,,1,1,0.8375,0,15,15,15,1,1,,
,,,,,,,,,,,,agarrar,visuospatial,NA,NA,yes,NA,NA,NA,word,"1,2and3",agarrar.wav,left,,ADV_EN_30,2023-09-06_14h24.57.284,auditory_ldt_2023_esp_list2,2021.1.1,Win32,59.96641881,,,1,1,0.8046,0,16,16,16,1,1,,
,,,,,,,,,,,,cogias,InflectionalVerbs,NA,NA,NA,3,High,17.76,word,2,cogias.wav,left,,ADV_EN_30,2023-09-06_14h24.57.284,auditory_ldt_2023_esp_list2,2021.1.1,Win32,59.96641881,,,1,1,1.5394,0,17,17,17,1,1,,
,,,,,,,,,,,,flaias,InflectionalVerbs,NA,NA,NA,NA,NA,NA,pseudoword,2,flaias.wav,right,,ADV_EN_30,2023-09-06_14h24.57.284,auditory_ldt_2023_esp_list2,2021.1.1,Win32,59.96641881,,,0,1,1.1624,0,18,18,18,1,0,,
,,,,,,,,,,,,lomito,morfosyllable,diferente,NA,NA,NA,NA,NA,word,"1,2and3",lomito.wav,left,,ADV_EN_30,2023-09-06_14h24.57.284,auditory_ldt_2023_esp_list2,2021.1.1,Win32,59.96641881,,,1,1,3.0245,0,19,19,19,1,1,,
,,,,,,,,,,,,duduto,morfosyllable,NA,NA,NA,NA,NA,NA,pseudoword,"1,2and3",duduto.wav,right,,ADV_EN_30,2023-09-06_14h24.57.284,auditory_ldt_2023_esp_list2,2021.1.1,Win32,59.96641881,,,0,1,1.1098,0,20,20,20,1,0,,
,,,,,,,,,,,,teruto,morfosyllable,NA,NA,NA,NA,NA,NA,pseudoword,"1,2and3",teruto.wav,right,,ADV_EN_30,2023-09-06_14h24.57.284,auditory_ldt_2023_esp_list2,2021.1.1,Win32,59.96641881,,,0,1,0.7348,0,21,21,21,1,0,,
,,,,,,,,,,,,aberfar,visuospatial,NA,NA,NA,NA,NA,NA,pseudoword,"1,2and3",aberfar.wav,right,,ADV_EN_30,2023-09-06_14h24.57.284,auditory_ldt_2023_esp_list2,2021.1.1,Win32,59.96641881,,,0,1,1.0544,0,22,22,22,1,0,,
,,,,,,,,,,,,flirsuta,morfosyllable,NA,NA,NA,NA,NA,NA,pseudoword,"1,2and3",flirsuta.wav,right,,ADV_EN_30,2023-09-06_14h24.57.284,auditory_ldt_2023_esp_list2,2021.1.1,Win32,59.96641881,,,0,1,0.7107,0,23,23,23,1,0,,
,,,,,,,,,,,,acertar,visuospatial,NA,NA,no,NA,NA,NA,word,"1,2and3",acertar.wav,left,,ADV_EN_30,2023-09-06_14h24.57.284,auditory_ldt_2023_esp_list2,2021.1.1,Win32,59.96641881,,,1,1,0.7785,0,24,24,24,1,1,,
,,,,,,,,,,,,piecito,morfosyllable,coincidente,3,NA,NA,NA,NA,word,"1,2and3",piecito.wav,left,,ADV_EN_30,2023-09-06_14h24.57.284,auditory_ldt_2023_esp_list2,2021.1.1,Win32,59.96641881,,,1,1,0.7607,0,25,25,25,1,1,,
,,,,,,,,,,,,colia,InflectionalVerbs,NA,NA,NA,NA,NA,NA,pseudoword,2,colia.wav,right,,ADV_EN_30,2023-09-06_14h24.57.284,auditory_ldt_2023_esp_list2,2021.1.1,Win32,59.96641881,,,1,0,0.9529,0,26,26,26,1,0,,
,,,,,,,,,,,,pedia,InflectionalVerbs,NA,NA,NA,2,High,50.1,word,2,pedia.wav,left,,ADV_EN_30,2023-09-06_14h24.57.284,auditory_ldt_2023_esp_list2,2021.1.1,Win32,59.96641881,,,1,1,1.8514,0,27,27,27,1,1,,
,,,,,,,,,,,,puertito,morfosyllable,diferente,NA,NA,NA,NA,NA,word,"1,2and3",puertito.wav,left,,ADV_EN_30,2023-09-06_14h24.57.284,auditory_ldt_2023_esp_list2,2021.1.1,Win32,59.96641881,,,0,0,0.6012,0,28,28,28,1,1,,
,,,,,,,,,,,,destrudar,visuospatial,NA,NA,NA,NA,NA,NA,pseudoword,"1,2and3",destrudar.wav,right,,ADV_EN_30,2023-09-06_14h24.57.284,auditory_ldt_2023_esp_list2,2021.1.1,Win32,59.96641881,,,0,1,0.8897,0,29,29,29,1,0,,
,,,,,,,,,,,,piolsuta,morfosyllable,NA,NA,NA,NA,NA,NA,pseudoword,"1,2and3",piolsuta.wav,right,,ADV_EN_30,2023-09-06_14h24.57.284,auditory_ldt_2023_esp_list2,2021.1.1,Win32,59.96641881,,,0,1,0.9559,0,30,30,30,1,0,,
,,,,,,,,,,,,vertiais,InflectionalVerbs,NA,NA,NA,4,Low,1.24,word,2,vertiais.wav,left,,ADV_EN_30,2023-09-06_14h24.57.284,auditory_ldt_2023_esp_list2,2021.1.1,Win32,59.96641881,,,1,1,2.8433,0,31,31,31,1,1,,
,,,,,,,,,,,,torito,morfosyllable,diferente,NA,NA,NA,NA,NA,word,"1,2and3",torito.wav,left,,ADV_EN_30,2023-09-06_14h24.57.284,auditory_ldt_2023_esp_list2,2021.1.1,Win32,59.96641881,,,1,1,1.2525,0,32,32,32,1,1,,
,,,,,,,,,,,,litruto,morfosyllable,NA,NA,NA,NA,NA,NA,pseudoword,"1,2and3",litruto.wav,right,,ADV_EN_30,2023-09-06_14h24.57.284,auditory_ldt_2023_esp_list2,2021.1.1,Win32,59.96641881,,,0,1,0.8191,0,33,33,33,1,0,,
,,,,,,,,,,,,caiais,InflectionalVerbs,NA,NA,NA,4,High,84.38,word,2,caiais.wav,left,,ADV_EN_30,2023-09-06_14h24.57.284,auditory_ldt_2023_esp_list2,2021.1.1,Win32,59.96641881,,,1,1,1.3284,0,34,34,34,1,1,,
,,,,,,,,,,,,reasuto,morfosyllable,NA,NA,NA,NA,NA,NA,pseudoword,"1,2and3",reasuto.wav,right,,ADV_EN_30,2023-09-06_14h24.57.284,auditory_ldt_2023_esp_list2,2021.1.1,Win32,59.96641881,,,0,1,1.3776,0,35,35,35,1,0,,
,,,,,,,,,,,,tosia,InflectionalVerbs,NA,NA,NA,2,Low,1.42,word,2,tosia.wav,left,,ADV_EN_30,2023-09-06_14h24.57.284,auditory_ldt_2023_esp_list2,2021.1.1,Win32,59.96641881,,,1,1,0.9363,0,36,36,36,1,1,,
,,,,,,,,,,,,arrastrar,visuospatial,NA,NA,yes,NA,NA,NA,word,"1,2and3",arrastrar.wav,left,,ADV_EN_30,2023-09-06_14h24.57.284,auditory_ldt_2023_esp_list2,2021.1.1,Win32,59.96641881,,,1,1,2.3529,0,37,37,37,1,1,,
,,,,,,,,,,,,desplazar,visuospatial,NA,NA,yes,NA,NA,NA,word,"1,2and3",desplazar.wav,left,,ADV_EN_30,2023-09-06_14h24.57.284,auditory_ldt_2023_esp_list2,2021.1.1,Win32,59.96641881,,,1,1,1.7348,0,38,38,38,1,1,,
,,,,,,,,,,,,trinsuto,morfosyllable,NA,NA,NA,NA,NA,NA,pseudoword,"1,2and3",trinsuto.wav,right,,ADV_EN_30,2023-09-06_14h24.57.284,auditory_ldt_2023_esp_list2,2021.1.1,Win32,59.96641881,,,0,1,0.9436,0,39,39,39,1,0,,
,,,,,,,,,,,,limuto,morfosyllable,NA,NA,NA,NA,NA,NA,pseudoword,"1,2and3",limuto.wav,right,,ADV_EN_30,2023-09-06_14h24.57.284,auditory_ldt_2023_esp_list2,2021.1.1,Win32,59.96641881,,,0,1,0.7799,0,40,40,40,1,0,,
,,,,,,,,,,,,afirmar,visuospatial,NA,NA,no,NA,NA,NA,word,"1,2and3",afirmar.wav,left,,ADV_EN_30,2023-09-06_14h24.57.284,auditory_ldt_2023_esp_list2,2021.1.1,Win32,59.96641881,,,1,1,0.7089,0,41,41,41,1,1,,
,,,,,,,,,,,,plensuto,morfosyllable,NA,NA,NA,NA,NA,NA,pseudoword,"1,2and3",plensuto.wav,right,,ADV_EN_30,2023-09-06_14h24.57.284,auditory_ldt_2023_esp_list2,2021.1.1,Win32,59.96641881,,,0,1,0.9184,0,42,42,42,1,0,,
,,,,,,,,,,,,metia,InflectionalVerbs,NA,NA,NA,2,High,23.09,word,2,metia.wav,left,,ADV_EN_30,2023-09-06_14h24.57.284,auditory_ldt_2023_esp_list2,2021.1.1,Win32,59.96641881,,,1,1,0.9901,0,43,43,43,1,1,,
,,,,,,,,,,,,conito,morfosyllable,diferente,NA,NA,NA,NA,NA,word,"1,2and3",conito.wav,left,,ADV_EN_30,2023-09-06_14h24.57.284,auditory_ldt_2023_esp_list2,2021.1.1,Win32,59.96641881,,,1,1,1.252,0,44,44,44,1,1,,
,,,,,,,,,,,,ramita,morfosyllable,diferente,NA,NA,NA,NA,NA,word,"1,2and3",ramita.wav,left,,ADV_EN_30,2023-09-06_14h24.57.284,auditory_ldt_2023_esp_list2,2021.1.1,Win32,59.96641881,,,1,1,0.6736,0,45,45,45,1,1,,
,,,,,,,,,,,,curdias,InflectionalVerbs,NA,NA,NA,NA,NA,NA,pseudoword,2,curdias.wav,right,,ADV_EN_30,2023-09-06_14h24.57.284,auditory_ldt_2023_esp_list2,2021.1.1,Win32,59.96641881,,,0,1,1.3879,0,46,46,46,1,0,,
,,,,,,,,,,,,desfantar,visuospatial,NA,NA,NA,NA,NA,NA,pseudoword,"1,2and3",desfantar.wav,right,,ADV_EN_30,2023-09-06_14h24.57.284,auditory_ldt_2023_esp_list2,2021.1.1,Win32,59.96641881,,,0,1,1.07,0,47,47,47,1,0,,
,,,,,,,,,,,,despegar,visuospatial,NA,NA,yes,NA,NA,NA,word,"1,2and3",despegar.wav,left,,ADV_EN_30,2023-09-06_14h24.57.284,auditory_ldt_2023_esp_list2,2021.1.1,Win32,59.96641881,,,1,1,0.8866,0,48,48,48,1,1,,
,,,,,,,,,,,,desglamar,visuospatial,NA,NA,NA,NA,NA,NA,pseudoword,"1,2and3",desglamar.wav,right,,ADV_EN_30,2023-09-06_14h24.57.284,auditory_ldt_2023_esp_list2,2021.1.1,Win32,59.96641881,,,0,1,1.3111,0,49,49,49,1,0,,
,,,,,,,,,,,,alargar,visuospatial,NA,NA,yes,NA,NA,NA,word,"1,2and3",alargar.wav,left,,ADV_EN_30,2023-09-06_14h24.57.284,auditory_ldt_2023_esp_list2,2021.1.1,Win32,59.96641881,,,1,1,0.9773,0,50,50,50,1,1,,
,,,,,,,,,,,,mordias,InflectionalVerbs,NA,NA,NA,3,Low,3.55,word,2,mordias.wav,left,,ADV_EN_30,2023-09-06_14h24.57.284,auditory_ldt_2023_esp_list2,2021.1.1,Win32,59.96641881,,,1,1,1.326,0,51,51,51,1,1,,
,,,,,,,,,,,,dedito,morfosyllable,diferente,NA,NA,NA,NA,NA,word,"1,2and3",dedito.wav,left,,ADV_EN_30,2023-09-06_14h24.57.284,auditory_ldt_2023_esp_list2,2021.1.1,Win32,59.96641881,,,1,1,0.9103,0,52,52,52,1,1,,
,,,,,,,,,,,,asuibar,visuospatial,NA,NA,NA,NA,NA,NA,pseudoword,"1,2and3",asuibar.wav,right,,ADV_EN_30,2023-09-06_14h24.57.284,auditory_ldt_2023_esp_list2,2021.1.1,Win32,59.96641881,,,0,1,0.7343,0,53,53,53,1,0,,
,,,,,,,,,,,,amurdar,visuospatial,NA,NA,NA,NA,NA,NA,pseudoword,"1,2and3",amurdar.wav,right,,ADV_EN_30,2023-09-06_14h24.57.284,auditory_ldt_2023_esp_list2,2021.1.1,Win32,59.96641881,,,0,1,1.0782,0,54,54,54,1,0,,
,,,,,,,,,,,,vociais,InflectionalVerbs,NA,NA,NA,NA,NA,NA,pseudoword,2,vociais.wav,right,,ADV_EN_30,2023-09-06_14h24.57.284,auditory_ldt_2023_esp_list2,2021.1.1,Win32,59.96641881,,,0,1,2.1953,0,55,55,55,1,0,,
,,,,,,,,,,,,gelcito,morfosyllable,coincidente,3,NA,NA,NA,NA,word,"1,2and3",gelcito.wav,left,,ADV_EN_30,2023-09-06_14h24.57.284,auditory_ldt_2023_esp_list2,2021.1.1,Win32,59.96641881,,,1,1,3.6962,0,56,56,56,1,1,,
,,,,,,,,,,,,yacias,InflectionalVerbs,NA,NA,NA,3,Low,1.42,word,2,yacias.wav,left,,ADV_EN_30,2023-09-06_14h24.57.284,auditory_ldt_2023_esp_list2,2021.1.1,Win32,59.96641881,,,1,1,1.4463,0,57,57,57,1,1,,
,,,,,,,,,,,,huevito,morfosyllable,diferente,NA,NA,NA,NA,NA,word,"1,2and3",huevito.wav,left,,ADV_EN_30,2023-09-06_14h24.57.284,auditory_ldt_2023_esp_list2,2021.1.1,Win32,59.96641881,,,1,1,0.8673,0,58,58,58,1,1,,
,,,,,,,,,,,,corriais,InflectionalVerbs,NA,NA,NA,4,High,51.87,word,2,corriais.wav,left,,ADV_EN_30,2023-09-06_14h24.57.284,auditory_ldt_2023_esp_list2,2021.1.1,Win32,59.96641881,,,1,1,0.8171,0,59,59,59,1,1,,
,,,,,,,,,,,,afemar,visuospatial,NA,NA,NA,NA,NA,NA,pseudoword,"1,2and3",afemar.wav,right,,ADV_EN_30,2023-09-06_14h24.57.284,auditory_ldt_2023_esp_list2,2021.1.1,Win32,59.96641881,,,0,1,1.1231,0,60,60,60,1,0,,
,,,,,,,,,,,,kemuta,morfosyllable,NA,NA,NA,NA,NA,NA,pseudoword,"1,2and3",kemuta.wav,right,,ADV_EN_30,2023-09-06_14h24.57.284,auditory_ldt_2023_esp_list2,2021.1.1,Win32,59.96641881,,,0,1,0.802,0,61,61,61,1,0,,
,,,,,,,,,,,,moliais,InflectionalVerbs,NA,NA,NA,4,Low,0.71,word,2,moliais.wav,left,,ADV_EN_30,2023-09-06_14h24.57.284,auditory_ldt_2023_esp_list2,2021.1.1,Win32,59.96641881,,,1,1,1.5379,0,62,62,62,1,1,,
,,,,,,,,,,,,acortar,visuospatial,NA,NA,yes,NA,NA,NA,word,"1,2and3",acortar.wav,left,,ADV_EN_30,2023-09-06_14h24.57.284,auditory_ldt_2023_esp_list2,2021.1.1,Win32,59.96641881,,,0,0,1.1694,0,63,63,63,1,1,,
,,,,,,,,,,,,apencrar,visuospatial,NA,NA,NA,NA,NA,NA,pseudoword,"1,2and3",apencrar.wav,right,,ADV_EN_30,2023-09-06_14h24.57.284,auditory_ldt_2023_esp_list2,2021.1.1,Win32,59.96641881,,,0,1,1.0759,0,64,64,64,1,0,,
,,,,,,,,,,,,buria,InflectionalVerbs,NA,NA,NA,NA,NA,NA,pseudoword,2,buria.wav,right,,ADV_EN_30,2023-09-06_14h24.57.284,auditory_ldt_2023_esp_list2,2021.1.1,Win32,59.96641881,,,0,1,0.9265,0,65,65,65,1,0,,
,,,,,,,,,,,,seguia,InflectionalVerbs,NA,NA,NA,2,High,144.42,word,2,seguia.wav,left,,ADV_EN_30,2023-09-06_14h24.57.284,auditory_ldt_2023_esp_list2,2021.1.1,Win32,59.96641881,,,1,1,1.9567,0,66,66,66,1,1,,
,,,,,,,,,,,,descrefiar,visuospatial,NA,NA,NA,NA,NA,NA,pseudoword,"1,2and3",descrefiar.wav,right,,ADV_EN_30,2023-09-06_14h24.57.284,auditory_ldt_2023_esp_list2,2021.1.1,Win32,59.96641881,,,0,1,1.6863,0,67,67,67,1,0,,
,,,,,,,,,,,,ecrias,InflectionalVerbs,NA,NA,NA,NA,NA,NA,pseudoword,2,ecrias.wav,right,,ADV_EN_30,2023-09-06_14h24.57.284,auditory_ldt_2023_esp_list2,2021.1.1,Win32,59.96641881,,,1,0,2.9124,0,68,68,68,1,0,,
,,,,,,,,,,,,leguto,morfosyllable,NA,NA,NA,NA,NA,NA,pseudoword,"1,2and3",leguto.wav,right,,ADV_EN_30,2023-09-06_14h24.57.284,auditory_ldt_2023_esp_list2,2021.1.1,Win32,59.96641881,,,0,1,1.4135,0,69,69,69,1,0,,
,,,,,,,,,,,,besito,morfosyllable,diferente,NA,NA,NA,NA,NA,word,"1,2and3",besito.wav,left,,ADV_EN_30,2023-09-06_14h24.57.284,auditory_ldt_2023_esp_list2,2021.1.1,Win32,59.96641881,,,1,1,0.8195,0,70,70,70,1,1,,
,,,,,,,,,,,,veniais,InflectionalVerbs,NA,NA,NA,4,High,50.81,word,2,veniais.wav,left,,ADV_EN_30,2023-09-06_14h24.57.284,auditory_ldt_2023_esp_list2,2021.1.1,Win32,59.96641881,,,1,1,1.618,0,71,71,71,1,1,,
,,,,,,,,,,,,anular,visuospatial,NA,NA,no,NA,NA,NA,word,"1,2and3",anular.wav,left,,ADV_EN_30,2023-09-06_14h24.57.284,auditory_ldt_2023_esp_list2,2021.1.1,Win32,59.96641881,,,1,1,1.081,0,72,72,72,1,1,,
,,,,,,,,,,,,endia,InflectionalVerbs,NA,NA,NA,NA,NA,NA,pseudoword,2,endia.wav,right,,ADV_EN_30,2023-09-06_14h24.57.284,auditory_ldt_2023_esp_list2,2021.1.1,Win32,59.96641881,,,0,1,0.9866,0,73,73,73,1,0,,
,,,,,,,,,,,,cedias,InflectionalVerbs,NA,NA,NA,3,Low,13.68,word,2,cedias.wav,left,,ADV_EN_30,2023-09-06_14h24.57.284,auditory_ldt_2023_esp_list2,2021.1.1,Win32,59.96641881,,,1,1,0.9785,0,74,74,74,1,1,,
,,,,,,,,,,,,aprongar,visuospatial,NA,NA,NA,NA,NA,NA,pseudoword,"1,2and3",aprongar.wav,right,,ADV_EN_30,2023-09-06_14h24.57.284,auditory_ldt_2023_esp_list2,2021.1.1,Win32,59.96641881,,,0,1,0.7185,0,75,75,75,1,0,,
,,,,,,,,,,,,sepota,morfosyllable,NA,NA,NA,NA,NA,NA,pseudoword,"1,2and3",sepota.wav,right,,ADV_EN_30,2023-09-06_14h24.57.284,auditory_ldt_2023_esp_list2,2021.1.1,Win32,59.96641881,,,0,1,0.7342,0,76,76,76,1,0,,
,,,,,,,,,,,,gemias,InflectionalVerbs,NA,NA,NA,3,Low,1.42,word,2,gemias.wav,left,,ADV_EN_30,2023-09-06_14h24.57.284,auditory_ldt_2023_esp_list2,2021.1.1,Win32,59.96641881,,,1,1,1.3387,0,77,77,77,1,1,,
,,,,,,,,,,,,honia,InflectionalVerbs,NA,NA,NA,NA,NA,NA,pseudoword,2,honia.wav,right,,ADV_EN_30,2023-09-06_14h24.57.284,auditory_ldt_2023_esp_list2,2021.1.1,Win32,59.96641881,,,0,1,1.3762,0,78,78,78,1,0,,
,,,,,,,,,,,,laguito,morfosyllable,diferente,NA,NA,NA,NA,NA,word,"1,2and3",laguito.wav,left,,ADV_EN_30,2023-09-06_14h24.57.284,auditory_ldt_2023_esp_list2,2021.1.1,Win32,59.96641881,,,0,0,0.8751,0,79,79,79,1,1,,
,,,,,,,,,,,,fegias,InflectionalVerbs,NA,NA,NA,NA,NA,NA,pseudoword,2,fegias.wav,right,,ADV_EN_30,2023-09-06_14h24.57.284,auditory_ldt_2023_esp_list2,2021.1.1,Win32,59.96641881,,,0,1,1.1087,0,80,80,80,1,0,,
,,,,,,,,,,,,fundiais,InflectionalVerbs,NA,NA,NA,4,Low,1.78,word,2,fundiais.wav,left,,ADV_EN_30,2023-09-06_14h24.57.284,auditory_ldt_2023_esp_list2,2021.1.1,Win32,59.96641881,,,0,0,1.1369,0,81,81,81,1,1,,
,,,,,,,,,,,,aclarar,visuospatial,NA,NA,no,NA,NA,NA,word,"1,2and3",aclarar.wav,left,,ADV_EN_30,2023-09-06_14h24.57.284,auditory_ldt_2023_esp_list2,2021.1.1,Win32,59.96641881,,,1,1,0.7869,0,82,82,82,1,1,,
,,,,,,,,,,,,uavuto,morfosyllable,NA,NA,NA,NA,NA,NA,pseudoword,"1,2and3",uavuto.wav,right,,ADV_EN_30,2023-09-06_14h24.57.284,auditory_ldt_2023_esp_list2,2021.1.1,Win32,59.96641881,,,0,1,1.096,0,83,83,83,1,0,,
,,,,,,,,,,,,pumias,InflectionalVerbs,NA,NA,NA,NA,NA,NA,pseudoword,2,pumias.wav,right,,ADV_EN_30,2023-09-06_14h24.57.284,auditory_ldt_2023_esp_list2,2021.1.1,Win32,59.96641881,,,0,1,1.3076,0,84,84,84,1,0,,
,,,,,,,,,,,,naciais,InflectionalVerbs,NA,NA,NA,4,High,21.67,word,2,naciais.wav,left,,ADV_EN_30,2023-09-06_14h24.57.284,auditory_ldt_2023_esp_list2,2021.1.1,Win32,59.96641881,,,1,1,1.2015,0,85,85,85,1,1,,
,,,,,,,,,,,,pensuto,morfosyllable,NA,NA,NA,NA,NA,NA,pseudoword,"1,2and3",pensuto.wav,right,,ADV_EN_30,2023-09-06_14h24.57.284,auditory_ldt_2023_esp_list2,2021.1.1,Win32,59.96641881,,,0,1,0.6856,0,86,86,86,1,0,,
,,,,,,,,,,,,draia,InflectionalVerbs,NA,NA,NA,NA,NA,NA,pseudoword,2,draia.wav,right,,ADV_EN_30,2023-09-06_14h24.57.284,auditory_ldt_2023_esp_list2,2021.1.1,Win32,59.96641881,,,0,1,1.4231,0,87,87,87,1,0,,
,,,,,,,,,,,,batiais,InflectionalVerbs,NA,NA,NA,4,Low,6.4,word,2,batiais.wav,left,,ADV_EN_30,2023-09-06_14h24.57.284,auditory_ldt_2023_esp_list2,2021.1.1,Win32,59.96641881,,,1,1,0.8932,0,88,88,88,1,1,,
,,,,,,,,,,,,plancito,morfosyllable,coincidente,4,NA,NA,NA,NA,word,"1,2and3",plancito.wav,left,,ADV_EN_30,2023-09-06_14h24.57.284,auditory_ldt_2023_esp_list2,2021.1.1,Win32,59.96641881,,,0,0,0.7169,0,89,89,89,1,1,,
,,,,,,,,,,,,noias,InflectionalVerbs,NA,NA,NA,NA,NA,NA,pseudoword,2,noias.wav,right,,ADV_EN_30,2023-09-06_14h24.57.284,auditory_ldt_2023_esp_list2,2021.1.1,Win32,59.96641881,,,0,1,1.1531,0,90,90,90,1,0,,
,,,,,,,,,,,,tejiais,InflectionalVerbs,NA,NA,NA,4,Low,4.26,word,2,tejiais.wav,left,,ADV_EN_30,2023-09-06_14h24.57.284,auditory_ldt_2023_esp_list2,2021.1.1,Win32,59.96641881,,,1,1,0.801,0,91,91,91,1,1,,
,,,,,,,,,,,,anotar,visuospatial,NA,NA,no,NA,NA,NA,word,"1,2and3",anotar.wav,left,,ADV_EN_30,2023-09-06_14h24.57.284,auditory_ldt_2023_esp_list2,2021.1.1,Win32,59.96641881,,,1,1,0.9088,0,92,92,92,1,1,,
,,,,,,,,,,,,didias,InflectionalVerbs,NA,NA,NA,NA,NA,NA,pseudoword,2,didias.wav,right,,ADV_EN_30,2023-09-06_14h24.57.284,auditory_ldt_2023_esp_list2,2021.1.1,Win32,59.96641881,,,1,0,1.1865,0,93,93,93,1,0,,
,,,,,,,,,,,,paria,InflectionalVerbs,NA,NA,NA,2,Low,5.86,word,2,paria.wav,left,,ADV_EN_30,2023-09-06_14h24.57.284,auditory_ldt_2023_esp_list2,2021.1.1,Win32,59.96641881,,,1,1,0.8011,0,94,94,94,1,1,,
,,,,,,,,,,,,despreciar,visuospatial,NA,NA,no,NA,NA,NA,word,"1,2and3",despreciar.wav,left,,ADV_EN_30,2023-09-06_14h24.57.284,auditory_ldt_2023_esp_list2,2021.1.1,Win32,59.96641881,,,1,1,0.9023,0,95,95,95,1,1,,
,,,,,,,,,,,,abrias,InflectionalVerbs,NA,NA,NA,3,High,48.85,word,2,abrias.wav,left,,ADV_EN_30,2023-09-06_14h24.57.284,auditory_ldt_2023_esp_list2,2021.1.1,Win32,59.96641881,,,1,1,1.1094,0,96,96,96,1,1,,
,,,,,,,,,,,,sopita,morfosyllable,diferente,NA,NA,NA,NA,NA,word,"1,2and3",sopita.wav,left,,ADV_EN_30,2023-09-06_14h24.57.284,auditory_ldt_2023_esp_list2,2021.1.1,Win32,59.96641881,,,1,1,0.9063,0,97,97,97,1,1,,
,,,,,,,,,,,,apirdar,visuospatial,NA,NA,NA,NA,NA,NA,pseudoword,"1,2and3",apirdar.wav,right,,ADV_EN_30,2023-09-06_14h24.57.284,auditory_ldt_2023_esp_list2,2021.1.1,Win32,59.96641881,,,0,1,0.7913,0,98,98,98,1,0,,
,,,,,,,,,,,,clobsuto,morfosyllable,NA,NA,NA,NA,NA,NA,pseudoword,"1,2and3",clobsuto.wav,right,,ADV_EN_30,2023-09-06_14h24.57.284,auditory_ldt_2023_esp_list2,2021.1.1,Win32,59.96641881,,,0,1,0.6111,0,99,99,99,1,0,,
,,,,,,,,,,,,timpia,InflectionalVerbs,NA,NA,NA,NA,NA,NA,pseudoword,2,timpia.wav,right,,ADV_EN_30,2023-09-06_14h24.57.284,auditory_ldt_2023_esp_list2,2021.1.1,Win32,59.96641881,,,0,1,1.0225,0,100,100,100,1,0,,
,,,,,,,,,,,,creia,InflectionalVerbs,NA,NA,NA,2,High,62.35,word,2,creia.wav,left,,ADV_EN_30,2023-09-06_14h24.57.284,auditory_ldt_2023_esp_list2,2021.1.1,Win32,59.96641881,,,1,1,0.8518,0,101,101,101,1,1,,
,,,,,,,,,,,,juancito,morfosyllable,coincidente,4,NA,NA,NA,NA,word,"1,2and3",juancito.wav,left,,ADV_EN_30,2023-09-06_14h24.57.284,auditory_ldt_2023_esp_list2,2021.1.1,Win32,59.96641881,,,1,1,0.7675,0,102,102,102,1,1,,
,,,,,,,,,,,,torcias,InflectionalVerbs,NA,NA,NA,3,Low,1.24,word,2,torcias.wav,left,,ADV_EN_30,2023-09-06_14h24.57.284,auditory_ldt_2023_esp_list2,2021.1.1,Win32,59.96641881,,,1,1,1.0005,0,103,103,103,1,1,,
,,,,,,,,,,,,trencito,morfosyllable,coincidente,4,NA,NA,NA,NA,word,"1,2and3",trencito.wav,left,,ADV_EN_30,2023-09-06_14h24.57.284,auditory_ldt_2023_esp_list2,2021.1.1,Win32,59.96641881,,,1,1,1.2565,0,104,104,104,1,1,,
,,,,,,,,,,,,reycito,morfosyllable,coincidente,3,NA,NA,NA,NA,word,"1,2and3",reycito.wav,left,,ADV_EN_30,2023-09-06_14h24.57.284,auditory_ldt_2023_esp_list2,2021.1.1,Win32,59.96641881,,,0,0,0.9885,0,105,105,105,1,1,,
,,,,,,,,,,,,vendias,InflectionalVerbs,NA,NA,NA,3,High,22.74,word,2,vendias.wav,left,,ADV_EN_30,2023-09-06_14h24.57.284,auditory_ldt_2023_esp_list2,2021.1.1,Win32,59.96641881,,,1,1,0.9173,0,106,106,106,1,1,,
,,,,,,,,,,,,juonsuto,morfosyllable,NA,NA,NA,NA,NA,NA,pseudoword,"1,2and3",juonsuto.wav,right,,ADV_EN_30,2023-09-06_14h24.57.284,auditory_ldt_2023_esp_list2,2021.1.1,Win32,59.96641881,,,0,1,0.6358,0,107,107,107,1,0,,
,,,,,,,,,,,,flunsuto,morfosyllable,NA,NA,NA,NA,NA,NA,pseudoword,"1,2and3",flunsuto.wav,right,,ADV_EN_30,2023-09-06_14h24.57.284,auditory_ldt_2023_esp_list2,2021.1.1,Win32,59.96641881,,,0,1,0.7369,0,108,108,108,1,0,,
,,,,,,,,,,,,afrontar,visuospatial,NA,NA,no,NA,NA,NA,word,"1,2and3",afrontar.wav,left,,ADV_EN_30,2023-09-06_14h24.57.284,auditory_ldt_2023_esp_list2,2021.1.1,Win32,59.96641881,,,1,1,0.7855,0,109,109,109,1,1,,
,,,,,,,,,,,,vamia,InflectionalVerbs,NA,NA,NA,NA,NA,NA,pseudoword,2,vamia.wav,right,,ADV_EN_30,2023-09-06_14h24.57.284,auditory_ldt_2023_esp_list2,2021.1.1,Win32,59.96641881,,,0,1,0.94,0,110,110,110,1,0,,
,,,,,,,,,,,,barriais,InflectionalVerbs,NA,NA,NA,4,Low,3.2,word,2,barriais.wav,left,,ADV_EN_30,2023-09-06_14h24.57.284,auditory_ldt_2023_esp_list2,2021.1.1,Win32,59.96641881,,,1,1,1.0518,0,111,111,111,1,1,,
,,,,,,,,,,,,afarbar,visuospatial,NA,NA,NA,NA,NA,NA,pseudoword,"1,2and3",afarbar.wav,right,,ADV_EN_30,2023-09-06_14h24.57.284,auditory_ldt_2023_esp_list2,2021.1.1,Win32,59.96641881,,,0,1,0.9098,0,112,112,112,1,0,,
,,,,,,,,,,,,moelsuta,morfosyllable,NA,NA,NA,NA,NA,NA,pseudoword,"1,2and3",moelsuta.wav,right,,ADV_EN_30,2023-09-06_14h24.57.284,auditory_ldt_2023_esp_list2,2021.1.1,Win32,59.96641881,,,0,1,1.3677,0,113,113,113,1,0,,
,,,,,,,,,,,,pelito,morfosyllable,diferente,NA,NA,NA,NA,NA,word,"1,2and3",pelito.wav,left,,ADV_EN_30,2023-09-06_14h24.57.284,auditory_ldt_2023_esp_list2,2021.1.1,Win32,59.96641881,,,1,1,0.7414,0,114,114,114,1,1,,
,,,,,,,,,,,,nisia,InflectionalVerbs,NA,NA,NA,NA,NA,NA,pseudoword,2,nisia.wav,right,,ADV_EN_30,2023-09-06_14h24.57.284,auditory_ldt_2023_esp_list2,2021.1.1,Win32,59.96641881,,,0,1,1.401,0,115,115,115,1,0,,
,,,,,,,,,,,,roncito,morfosyllable,coincidente,3,NA,NA,NA,NA,word,"1,2and3",roncito.wav,left,,ADV_EN_30,2023-09-06_14h24.57.284,auditory_ldt_2023_esp_list2,2021.1.1,Win32,59.96641881,,,0,0,0.993,0,116,116,116,1,1,,
,,,,,,,,,,,,apasfrar,visuospatial,NA,NA,NA,NA,NA,NA,pseudoword,"1,2and3",apasfrar.wav,right,,ADV_EN_30,2023-09-06_14h24.57.284,auditory_ldt_2023_esp_list2,2021.1.1,Win32,59.96641881,,,0,1,0.9119,0,117,117,117,1,0,,
,,,,,,,,,,,,julsuto,morfosyllable,NA,NA,NA,NA,NA,NA,pseudoword,"1,2and3",julsuto.wav,right,,ADV_EN_30,2023-09-06_14h24.57.284,auditory_ldt_2023_esp_list2,2021.1.1,Win32,59.96641881,,,0,1,0.8222,0,118,118,118,1,0,,
,,,,,,,,,,,,desbemar,visuospatial,NA,NA,NA,NA,NA,NA,pseudoword,"1,2and3",desbemar.wav,right,,ADV_EN_30,2023-09-06_14h24.57.284,auditory_ldt_2023_esp_list2,2021.1.1,Win32,59.96641881,,,1,0,1.953,0,119,119,119,1,0,,
,,,,,,,,,,,,salia,InflectionalVerbs,NA,NA,NA,2,High,169.12,word,2,salia.wav,left,,ADV_EN_30,2023-09-06_14h24.57.284,auditory_ldt_2023_esp_list2,2021.1.1,Win32,59.96641881,,,1,1,1.4037,0,120,120,120,1,1,,
,,,,,,,,,,,,amanar,visuospatial,NA,NA,NA,NA,NA,NA,pseudoword,"1,2and3",amanar.wav,right,,ADV_EN_30,2023-09-06_14h24.57.284,auditory_ldt_2023_esp_list2,2021.1.1,Win32,59.96641881,,,0,1,1.0338,0,121,121,121,1,0,,
,,,,,,,,,,,,ajanar,visuospatial,NA,NA,NA,NA,NA,NA,pseudoword,"1,2and3",ajanar.wav,right,,ADV_EN_30,2023-09-06_14h24.57.284,auditory_ldt_2023_esp_list2,2021.1.1,Win32,59.96641881,,,0,1,0.5247,0,122,122,122,1,0,,
,,,,,,,,,,,,akirsar,visuospatial,NA,NA,NA,NA,NA,NA,pseudoword,"1,2and3",akirsar.wav,right,,ADV_EN_30,2023-09-06_14h24.57.284,auditory_ldt_2023_esp_list2,2021.1.1,Win32,59.96641881,,,0,1,0.9899,0,123,123,123,1,0,,
,,,,,,,,,,,,lamia,InflectionalVerbs,NA,NA,NA,2,Low,1.07,word,2,lamia.wav,left,,ADV_EN_30,2023-09-06_14h24.57.284,auditory_ldt_2023_esp_list2,2021.1.1,Win32,59.96641881,,,1,1,1.1094,0,124,124,124,1,1,,
,,,,,,,,,,,,destrozar,visuospatial,NA,NA,yes,NA,NA,NA,word,"1,2and3",destrozar.wav,left,,ADV_EN_30,2023-09-06_14h24.57.284,auditory_ldt_2023_esp_list2,2021.1.1,Win32,59.96641881,,,1,1,0.9696,0,125,125,125,1,1,,
,,,,,,,,,,,,kirruto,morfosyllable,NA,NA,NA,NA,NA,NA,pseudoword,"1,2and3",kirruto.wav,right,,ADV_EN_30,2023-09-06_14h24.57.284,auditory_ldt_2023_esp_list2,2021.1.1,Win32,59.96641881,,,0,1,0.7683,0,126,126,126,1,0,,
,,,,,,,,,,,,mielcita,morfosyllable,coincidente,4,NA,NA,NA,NA,word,"1,2and3",mielcita.wav,left,,ADV_EN_30,2023-09-06_14h24.57.284,auditory_ldt_2023_esp_list2,2021.1.1,Win32,59.96641881,,,0,0,0.7371,0,127,127,127,1,1,,
,,,,,,,,,,,,alubar,visuospatial,NA,NA,NA,NA,NA,NA,pseudoword,"1,2and3",alubar.wav,right,,ADV_EN_30,2023-09-06_14h24.57.284,auditory_ldt_2023_esp_list2,2021.1.1,Win32,59.96641881,,,0,1,1.0502,0,128,128,128,1,0,,
,,,,,,,,,,,,florcita,morfosyllable,coincidente,4,NA,NA,NA,NA,word,"1,2and3",florcita.wav,left,,ADV_EN_30,2023-09-06_14h24.57.284,auditory_ldt_2023_esp_list2,2021.1.1,Win32,59.96641881,,,0,0,0.7978,0,129,129,129,1,1,,
,,,,,,,,,,,,ratito,morfosyllable,diferente,NA,NA,NA,NA,NA,word,"1,2and3",ratito.wav,left,,ADV_EN_30,2023-09-06_14h24.57.284,auditory_ldt_2023_esp_list2,2021.1.1,Win32,59.96641881,,,1,1,0.8264,0,130,130,130,1,1,,
,,,,,,,,,,,,kinuto,morfosyllable,NA,NA,NA,NA,NA,NA,pseudoword,"1,2and3",kinuto.wav,right,,ADV_EN_30,2023-09-06_14h24.57.284,auditory_ldt_2023_esp_list2,2021.1.1,Win32,59.96641881,,,0,1,1.0192,0,131,131,131,1,0,,
,,,,,,,,,,,,rensuto,morfosyllable,NA,NA,NA,NA,NA,NA,pseudoword,"1,2and3",rensuto.wav,right,,ADV_EN_30,2023-09-06_14h24.57.284,auditory_ldt_2023_esp_list2,2021.1.1,Win32,59.96641881,,,0,1,0.8445,0,132,132,132,1,0,,
,,,,,,,,,,,,subiais,InflectionalVerbs,NA,NA,NA,4,High,36.77,word,2,subiais.wav,left,,ADV_EN_30,2023-09-06_14h24.57.284,auditory_ldt_2023_esp_list2,2021.1.1,Win32,59.96641881,,,1,1,2.606,0,133,133,133,1,1,,
,,,,,,,,,,,,cutiais,InflectionalVerbs,NA,NA,NA,NA,NA,NA,pseudoword,2,cutiais.wav,right,,ADV_EN_30,2023-09-06_14h24.57.284,auditory_ldt_2023_esp_list2,2021.1.1,Win32,59.96641881,,,0,1,0.8916,0,134,134,134,1,0,,
,,,,,,,,,,,,puartuto,morfosyllable,NA,NA,NA,NA,NA,NA,pseudoword,"1,2and3",puartuto.wav,right,,ADV_EN_30,2023-09-06_14h24.57.284,auditory_ldt_2023_esp_list2,2021.1.1,Win32,59.96641881,,,0,1,0.82,0,135,135,135,1,0,,
,,,,,,,,,,,,acallar,visuospatial,NA,NA,no,NA,NA,NA,word,"1,2and3",acallar.wav,left,,ADV_EN_30,2023-09-06_14h24.57.284,auditory_ldt_2023_esp_list2,2021.1.1,Win32,59.96641881,,,1,1,0.902,0,136,136,136,1,1,,
,,,,,,,,,,,,heria,InflectionalVerbs,NA,NA,NA,2,Low,5.15,word,2,heria.wav,left,,ADV_EN_30,2023-09-06_14h24.57.284,auditory_ldt_2023_esp_list2,2021.1.1,Win32,59.96641881,,,1,1,0.7863,0,137,137,137,1,1,,
,,,,,,,,,,,,clubcito,morfosyllable,coincidente,4,NA,NA,NA,NA,word,"1,2and3",clubcito.wav,left,,ADV_EN_30,2023-09-06_14h24.57.284,auditory_ldt_2023_esp_list2,2021.1.1,Win32,59.96641881,,,0,0,0.8596,0,138,138,138,1,1,,
,,,,,,,,,,,,flancito,morfosyllable,coincidente,4,NA,NA,NA,NA,word,"1,2and3",flancito.wav,left,,ADV_EN_30,2023-09-06_14h24.57.284,auditory_ldt_2023_esp_list2,2021.1.1,Win32,59.96641881,,,1,1,0.6254,0,139,139,139,1,1,,
,,,,,,,,,,,,golcito,morfosyllable,coincidente,3,NA,NA,NA,NA,word,"1,2and3",golcito.wav,left,,ADV_EN_30,2023-09-06_14h24.57.284,auditory_ldt_2023_esp_list2,2021.1.1,Win32,59.96641881,,,0,0,0.8321,0,140,140,140,1,1,,
,,,,,,,,,,,,adentrar,visuospatial,NA,NA,yes,NA,NA,NA,word,"1,2and3",adentrar.wav,left,,ADV_EN_30,2023-09-06_14h24.57.284,auditory_ldt_2023_esp_list2,2021.1.1,Win32,59.96641881,,,0,0,2.1437,0,141,141,141,1,1,,
,,,,,,,,,,,,lu単ia,InflectionalVerbs,NA,NA,NA,NA,NA,NA,pseudoword,2,lu単ia.wav,right,,ADV_EN_30,2023-09-06_14h24.57.284,auditory_ldt_2023_esp_list2,2021.1.1,Win32,59.96641881,,,0,1,1.0715,0,142,142,142,1,0,,
,,,,,,,,,,,,te単ia,InflectionalVerbs,NA,NA,NA,2,Low,0.36,word,2,te単ia.wav,left,,ADV_EN_30,2023-09-06_14h24.57.284,auditory_ldt_2023_esp_list2,2021.1.1,Win32,59.96641881,,,1,1,0.8691,0,143,143,143,1,1,,
,,,,,,,,,,,,agartar,visuospatial,NA,NA,NA,NA,NA,NA,pseudoword,"1,2and3",agartar.wav,right,,ADV_EN_30,2023-09-06_14h24.57.284,auditory_ldt_2023_esp_list2,2021.1.1,Win32,59.96641881,,,0,1,1.1639,0,144,144,144,1,0,,
,,,,,,,,,,,,goiais,InflectionalVerbs,NA,NA,NA,NA,NA,NA,pseudoword,2,goiais.wav,right,,ADV_EN_30,2023-09-06_14h24.57.284,auditory_ldt_2023_esp_list2,2021.1.1,Win32,59.96641881,,,0,1,0.9437,0,145,145,145,1,0,,
,,,,,,,,,,,,rompia,InflectionalVerbs,NA,NA,NA,2,High,35.35,word,2,rompia.wav,left,,ADV_EN_30,2023-09-06_14h24.57.284,auditory_ldt_2023_esp_list2,2021.1.1,Win32,59.96641881,,,1,1,1.0528,0,146,146,146,1,1,,
,,,,,,,,,,,,nulviais,InflectionalVerbs,NA,NA,NA,NA,NA,NA,pseudoword,2,nulviais.wav,right,,ADV_EN_30,2023-09-06_14h24.57.284,auditory_ldt_2023_esp_list2,2021.1.1,Win32,59.96641881,,,0,1,1.0949,0,147,147,147,1,0,,
,,,,,,,,,,,,desconfiar,visuospatial,NA,NA,no,NA,NA,NA,word,"1,2and3",desconfiar.wav,left,,ADV_EN_30,2023-09-06_14h24.57.284,auditory_ldt_2023_esp_list2,2021.1.1,Win32,59.96641881,,,1,1,0.9532,0,148,148,148,1,1,,
,,,,,,,,,,,,traias,InflectionalVerbs,NA,NA,NA,3,High,17.41,word,2,traias.wav,left,,ADV_EN_30,2023-09-06_14h24.57.284,auditory_ldt_2023_esp_list2,2021.1.1,Win32,59.96641881,,,1,1,1.2045,0,149,149,149,1,1,,
,,,,,,,,,,,,selsuto,morfosyllable,NA,NA,NA,NA,NA,NA,pseudoword,"1,2and3",selsuto.wav,right,,ADV_EN_30,2023-09-06_14h24.57.284,auditory_ldt_2023_esp_list2,2021.1.1,Win32,59.96641881,,,0,1,0.8004,0,150,150,150,1,0,,
,,,,,,,,,,,,leias,InflectionalVerbs,NA,NA,NA,3,High,70.17,word,2,leias.wav,left,,ADV_EN_30,2023-09-06_14h24.57.284,auditory_ldt_2023_esp_list2,2021.1.1,Win32,59.96641881,,,1,1,0.7847,0,151,151,151,1,1,,
,,,,,,,,,,,,barcito,morfosyllable,coincidente,3,NA,NA,NA,NA,word,"1,2and3",barcito.wav,left,,ADV_EN_30,2023-09-06_14h24.57.284,auditory_ldt_2023_esp_list2,2021.1.1,Win32,59.96641881,,,0,0,0.8061,0,152,152,152,1,1,,
,,,,,,,,,,,,aplirar,visuospatial,NA,NA,NA,NA,NA,NA,pseudoword,"1,2and3",aplirar.wav,right,,ADV_EN_30,2023-09-06_14h24.57.284,auditory_ldt_2023_esp_list2,2021.1.1,Win32,59.96641881,,,1,0,0.6343,0,153,153,153,1,0,,
,,,,,,,,,,,,bisuto,morfosyllable,NA,NA,NA,NA,NA,NA,pseudoword,"1,2and3",bisuto.wav,right,,ADV_EN_30,2023-09-06_14h24.57.284,auditory_ldt_2023_esp_list2,2021.1.1,Win32,59.96641881,,,0,1,0.5629,0,154,154,154,1,0,,
,,,,,,,,,,,,arentar,visuospatial,NA,NA,NA,NA,NA,NA,pseudoword,"1,2and3",arentar.wav,right,,ADV_EN_30,2023-09-06_14h24.57.284,auditory_ldt_2023_esp_list2,2021.1.1,Win32,59.96641881,,,0,1,0.8138,0,155,155,155,1,0,,
,,,,,,,,,,,,volviais,InflectionalVerbs,NA,NA,NA,4,High,120.09,word,2,volviais.wav,left,,ADV_EN_30,2023-09-06_14h24.57.284,auditory_ldt_2023_esp_list2,2021.1.1,Win32,59.96641881,,,1,1,1.034,0,156,156,156,1,1,,
,,,,,,,,,,,,agromar,visuospatial,NA,NA,NA,NA,NA,NA,pseudoword,"1,2and3",agromar.wav,right,,ADV_EN_30,2023-09-06_14h24.57.284,auditory_ldt_2023_esp_list2,2021.1.1,Win32,59.96641881,,,0,1,0.7075,0,157,157,157,1,0,,
,,,,,,,,,,,,camita,morfosyllable,diferente,NA,NA,NA,NA,NA,word,"1,2and3",camita.wav,left,,ADV_EN_30,2023-09-06_14h24.57.284,auditory_ldt_2023_esp_list2,2021.1.1,Win32,59.96641881,,,0,0,0.6357,0,158,158,158,1,1,,
,,,,,,,,,,,,aprobar,visuospatial,NA,NA,no,NA,NA,NA,word,"1,2and3",aprobar.wav,left,,ADV_EN_30,2023-09-06_14h24.57.284,auditory_ldt_2023_esp_list2,2021.1.1,Win32,59.96641881,,,1,1,0.9459,0,159,159,159,1,1,,
,,,,,,,,,,,,arruinar,visuospatial,NA,NA,no,NA,NA,NA,word,"1,2and3",arruinar.wav,left,,ADV_EN_30,2023-09-06_14h24.57.284,auditory_ldt_2023_esp_list2,2021.1.1,Win32,59.96641881,,,1,1,1.2367,0,160,160,160,1,1,,
,,,,,,,,,,,,pielcita,morfosyllable,coincidente,4,NA,NA,NA,NA,word,"1,2and3",pielcita.wav,left,,ADV_EN_30,2023-09-06_14h24.57.284,auditory_ldt_2023_esp_list2,2021.1.1,Win32,59.96641881,,,1,1,0.7087,0,161,161,161,1,1,,
,,,,,,,,,,,,girtiais,InflectionalVerbs,NA,NA,NA,NA,NA,NA,pseudoword,2,girtiais.wav,right,,ADV_EN_30,2023-09-06_14h24.57.284,auditory_ldt_2023_esp_list2,2021.1.1,Win32,59.96641881,,,0,1,1.1002,0,162,162,162,1,0,,
,,,,,,,,,,,,pancito,morfosyllable,coincidente,3,NA,NA,NA,NA,word,"1,2and3",pancito.wav,left,,ADV_EN_30,2023-09-06_14h24.57.284,auditory_ldt_2023_esp_list2,2021.1.1,Win32,59.96641881,,,1,1,0.6726,0,163,163,163,1,1,,
,,,,,,,,,,,,piluto,morfosyllable,NA,NA,NA,NA,NA,NA,pseudoword,"1,2and3",piluto.wav,right,,ADV_EN_30,2023-09-06_14h24.57.284,auditory_ldt_2023_esp_list2,2021.1.1,Win32,59.96641881,,,1,0,2.088,0,164,164,164,1,0,,
,,,,,,,,,,,,regias,InflectionalVerbs,NA,NA,NA,3,Low,1.95,word,2,regias.wav,left,,ADV_EN_30,2023-09-06_14h24.57.284,auditory_ldt_2023_esp_list2,2021.1.1,Win32,59.96641881,,,0,0,2.2039,0,165,165,165,1,1,,
,,,,,,,,,,,,pojiais,InflectionalVerbs,NA,NA,NA,NA,NA,NA,pseudoword,2,pojiais.wav,right,,ADV_EN_30,2023-09-06_14h24.57.284,auditory_ldt_2023_esp_list2,2021.1.1,Win32,59.96641881,,,0,1,0.884,0,166,166,166,1,0,,
,,,,,,,,,,,,acercar,visuospatial,NA,NA,yes,NA,NA,NA,word,"1,2and3",acercar.wav,left,,ADV_EN_30,2023-09-06_14h24.57.284,auditory_ldt_2023_esp_list2,2021.1.1,Win32,59.96641881,,,1,1,4.9198,0,167,167,167,1,1,,
,,,,,,,,,,,,apitar,visuospatial,NA,NA,NA,NA,NA,NA,pseudoword,"1,2and3",apitar.wav,right,,ADV_EN_30,2023-09-06_14h24.57.284,auditory_ldt_2023_esp_list2,2021.1.1,Win32,59.96641881,,,1,0,1.0276,0,168,168,168,1,0,,
,,,,,,,,,,,,alejar,visuospatial,NA,NA,yes,NA,NA,NA,word,"1,2and3",alejar.wav,left,,ADV_EN_30,2023-09-06_14h24.57.284,auditory_ldt_2023_esp_list2,2021.1.1,Win32,59.96641881,,,1,1,0.8279,0,169,169,169,1,1,,
,,,,,,,,,,,,,,,,,,,,,,,,,ADV_EN_30,2023-09-06_14h24.57.284,auditory_ldt_2023_esp_list2,2021.1.1,Win32,59.96641881,,,,,,,,,,,,space,5.2536
