key_resp.keys,key_resp.rt,key_resp_2.keys,key_resp_2.rt,key_resp_3.keys,key_resp_3.corr,key_resp_3.rt,trials.thisRepN,trials.thisTrialN,trials.thisN,trials.thisIndex,trials.ran,Word,Experiment,root_syllable,phonemes_firstsyllable,spatial_verb,Number_of_morphemes,lexical_freq,lex_freq_lexesp,Item_Type,list,wav,CorrResp,CorrRespNumb,participant,date,expName,psychopyVersion,OS,frameRate,key_resp_4.keys,key_resp_4.rt,key_resp_6.keys,key_resp_6.corr,key_resp_6.rt,trials_2.thisRepN,trials_2.thisTrialN,trials_2.thisN,trials_2.thisIndex,trials_2.ran,CorRespNumb,key_resp_5.keys,key_resp_5.rt
space,1.6365,y,2.0159,1,1,1.3768,0,0,0,0,1,casita,practica,NA,NA,NA,NA,NA,NA,NA,NA,casita.wav,left,1,ADV_EN_28,2023-09-06_15h30.55.694,auditory_ldt_2023_esp_list2,2021.1.1,Win32,61.51574803,,,,,,,,,,,,,
,,,,1,1,0.8081,0,1,1,1,1,acabar,practica,NA,NA,NA,NA,NA,NA,NA,NA,acabar.wav,left,1,ADV_EN_28,2023-09-06_15h30.55.694,auditory_ldt_2023_esp_list2,2021.1.1,Win32,61.51574803,,,,,,,,,,,,,
,,,,1,0,1.3846,0,2,2,2,1,arujar,practica,NA,NA,NA,NA,NA,NA,NA,NA,arujar.wav,right,0,ADV_EN_28,2023-09-06_15h30.55.694,auditory_ldt_2023_esp_list2,2021.1.1,Win32,61.51574803,,,,,,,,,,,,,
,,,,1,1,0.7927,0,3,3,3,1,gatito,practica,NA,NA,NA,NA,NA,NA,NA,NA,gatito.wav,left,1,ADV_EN_28,2023-09-06_15h30.55.694,auditory_ldt_2023_esp_list2,2021.1.1,Win32,61.51574803,,,,,,,,,,,,,
,,,,0,1,1.7536,0,4,4,4,1,deslopar,practica,NA,NA,NA,NA,NA,NA,NA,NA,deslopar.wav,right,0,ADV_EN_28,2023-09-06_15h30.55.694,auditory_ldt_2023_esp_list2,2021.1.1,Win32,61.51574803,,,,,,,,,,,,,
,,,,0,1,0.8989,0,5,5,5,1,masuto,practica,NA,NA,NA,NA,NA,NA,NA,NA,masuto.wav,right,0,ADV_EN_28,2023-09-06_15h30.55.694,auditory_ldt_2023_esp_list2,2021.1.1,Win32,61.51574803,,,,,,,,,,,,,
,,,,,,,,,,,,solcito,morfosyllable,coincidente,3,NA,NA,NA,NA,word,"1,2and3",solcito.wav,left,,ADV_EN_28,2023-09-06_15h30.55.694,auditory_ldt_2023_esp_list2,2021.1.1,Win32,61.51574803,k,4.7151,1,1,0.7924,0,0,0,0,1,1,,
,,,,,,,,,,,,descungiar,visuospatial,NA,NA,NA,NA,NA,NA,pseudoword,"1,2and3",descungiar.wav,right,,ADV_EN_28,2023-09-06_15h30.55.694,auditory_ldt_2023_esp_list2,2021.1.1,Win32,61.51574803,,,1,0,1.1449,0,1,1,1,1,0,,
,,,,,,,,,,,,borsuto,morfosyllable,NA,NA,NA,NA,NA,NA,pseudoword,"1,2and3",borsuto.wav,right,,ADV_EN_28,2023-09-06_15h30.55.694,auditory_ldt_2023_esp_list2,2021.1.1,Win32,61.51574803,,,0,1,1.0666,0,2,2,2,1,0,,
,,,,,,,,,,,,apartar,visuospatial,NA,NA,yes,NA,NA,NA,word,"1,2and3",apartar.wav,left,,ADV_EN_28,2023-09-06_15h30.55.694,auditory_ldt_2023_esp_list2,2021.1.1,Win32,61.51574803,,,1,1,0.8163,0,3,3,3,1,1,,
,,,,,,,,,,,,vesuto,morfosyllable,NA,NA,NA,NA,NA,NA,pseudoword,"1,2and3",vesuto.wav,right,,ADV_EN_28,2023-09-06_15h30.55.694,auditory_ldt_2023_esp_list2,2021.1.1,Win32,61.51574803,,,0,1,0.8428,0,4,4,4,1,0,,
,,,,,,,,,,,,ardia,InflectionalVerbs,NA,NA,NA,2,Low,3.38,word,2,ardia.wav,left,,ADV_EN_28,2023-09-06_15h30.55.694,auditory_ldt_2023_esp_list2,2021.1.1,Win32,61.51574803,,,1,1,1.0702,0,5,5,5,1,1,,
,,,,,,,,,,,,seclia,InflectionalVerbs,NA,NA,NA,NA,NA,NA,pseudoword,2,seclia.wav,right,,ADV_EN_28,2023-09-06_15h30.55.694,auditory_ldt_2023_esp_list2,2021.1.1,Win32,61.51574803,,,0,1,1.2254,0,6,6,6,1,0,,
,,,,,,,,,,,,descansar,visuospatial,NA,NA,no,NA,NA,NA,word,"1,2and3",descansar.wav,left,,ADV_EN_28,2023-09-06_15h30.55.694,auditory_ldt_2023_esp_list2,2021.1.1,Win32,61.51574803,,,1,1,1.0464,0,7,7,7,1,1,,
,,,,,,,,,,,,retuto,morfosyllable,NA,NA,NA,NA,NA,NA,pseudoword,"1,2and3",retuto.wav,right,,ADV_EN_28,2023-09-06_15h30.55.694,auditory_ldt_2023_esp_list2,2021.1.1,Win32,61.51574803,,,1,0,1.1059,0,8,8,8,1,0,,
,,,,,,,,,,,,remuta,morfosyllable,NA,NA,NA,NA,NA,NA,pseudoword,"1,2and3",remuta.wav,right,,ADV_EN_28,2023-09-06_15h30.55.694,auditory_ldt_2023_esp_list2,2021.1.1,Win32,61.51574803,,,1,0,1.1306,0,9,9,9,1,0,,
,,,,,,,,,,,,abordar,visuospatial,NA,NA,yes,NA,NA,NA,word,"1,2and3",abordar.wav,left,,ADV_EN_28,2023-09-06_15h30.55.694,auditory_ldt_2023_esp_list2,2021.1.1,Win32,61.51574803,,,1,1,0.9805,0,10,10,10,1,1,,
,,,,,,,,,,,,galsuto,morfosyllable,NA,NA,NA,NA,NA,NA,pseudoword,"1,2and3",galsuto.wav,right,,ADV_EN_28,2023-09-06_15h30.55.694,auditory_ldt_2023_esp_list2,2021.1.1,Win32,61.51574803,,,0,1,0.967,0,11,11,11,1,0,,
,,,,,,,,,,,,carrito,morfosyllable,diferente,NA,NA,NA,NA,NA,word,"1,2and3",carrito.wav,left,,ADV_EN_28,2023-09-06_15h30.55.694,auditory_ldt_2023_esp_list2,2021.1.1,Win32,61.51574803,,,1,1,0.6329,0,12,12,12,1,1,,
,,,,,,,,,,,,perdias,InflectionalVerbs,NA,NA,NA,3,High,78.87,word,2,perdias.wav,left,,ADV_EN_28,2023-09-06_15h30.55.694,auditory_ldt_2023_esp_list2,2021.1.1,Win32,61.51574803,,,1,1,1.2718,0,13,13,13,1,1,,
,,,,,,,,,,,,librito,morfosyllable,diferente,NA,NA,NA,NA,NA,word,"1,2and3",librito.wav,left,,ADV_EN_28,2023-09-06_15h30.55.694,auditory_ldt_2023_esp_list2,2021.1.1,Win32,61.51574803,,,1,1,0.9854,0,14,14,14,1,1,,
,,,,,,,,,,,,vasito,morfosyllable,diferente,NA,NA,NA,NA,NA,word,"1,2and3",vasito.wav,left,,ADV_EN_28,2023-09-06_15h30.55.694,auditory_ldt_2023_esp_list2,2021.1.1,Win32,61.51574803,,,1,1,0.7179,0,15,15,15,1,1,,
,,,,,,,,,,,,agarrar,visuospatial,NA,NA,yes,NA,NA,NA,word,"1,2and3",agarrar.wav,left,,ADV_EN_28,2023-09-06_15h30.55.694,auditory_ldt_2023_esp_list2,2021.1.1,Win32,61.51574803,,,1,1,0.8441,0,16,16,16,1,1,,
,,,,,,,,,,,,cogias,InflectionalVerbs,NA,NA,NA,3,High,17.76,word,2,cogias.wav,left,,ADV_EN_28,2023-09-06_15h30.55.694,auditory_ldt_2023_esp_list2,2021.1.1,Win32,61.51574803,,,1,1,1.104,0,17,17,17,1,1,,
,,,,,,,,,,,,flaias,InflectionalVerbs,NA,NA,NA,NA,NA,NA,pseudoword,2,flaias.wav,right,,ADV_EN_28,2023-09-06_15h30.55.694,auditory_ldt_2023_esp_list2,2021.1.1,Win32,61.51574803,,,0,1,1.0586,0,18,18,18,1,0,,
,,,,,,,,,,,,lomito,morfosyllable,diferente,NA,NA,NA,NA,NA,word,"1,2and3",lomito.wav,left,,ADV_EN_28,2023-09-06_15h30.55.694,auditory_ldt_2023_esp_list2,2021.1.1,Win32,61.51574803,,,1,1,1.0441,0,19,19,19,1,1,,
,,,,,,,,,,,,duduto,morfosyllable,NA,NA,NA,NA,NA,NA,pseudoword,"1,2and3",duduto.wav,right,,ADV_EN_28,2023-09-06_15h30.55.694,auditory_ldt_2023_esp_list2,2021.1.1,Win32,61.51574803,,,0,1,0.9231,0,20,20,20,1,0,,
,,,,,,,,,,,,teruto,morfosyllable,NA,NA,NA,NA,NA,NA,pseudoword,"1,2and3",teruto.wav,right,,ADV_EN_28,2023-09-06_15h30.55.694,auditory_ldt_2023_esp_list2,2021.1.1,Win32,61.51574803,,,0,1,0.7863,0,21,21,21,1,0,,
,,,,,,,,,,,,aberfar,visuospatial,NA,NA,NA,NA,NA,NA,pseudoword,"1,2and3",aberfar.wav,right,,ADV_EN_28,2023-09-06_15h30.55.694,auditory_ldt_2023_esp_list2,2021.1.1,Win32,61.51574803,,,0,1,1.4053,0,22,22,22,1,0,,
,,,,,,,,,,,,flirsuta,morfosyllable,NA,NA,NA,NA,NA,NA,pseudoword,"1,2and3",flirsuta.wav,right,,ADV_EN_28,2023-09-06_15h30.55.694,auditory_ldt_2023_esp_list2,2021.1.1,Win32,61.51574803,,,0,1,0.9154,0,23,23,23,1,0,,
,,,,,,,,,,,,acertar,visuospatial,NA,NA,no,NA,NA,NA,word,"1,2and3",acertar.wav,left,,ADV_EN_28,2023-09-06_15h30.55.694,auditory_ldt_2023_esp_list2,2021.1.1,Win32,61.51574803,,,1,1,1.1442,0,24,24,24,1,1,,
,,,,,,,,,,,,piecito,morfosyllable,coincidente,3,NA,NA,NA,NA,word,"1,2and3",piecito.wav,left,,ADV_EN_28,2023-09-06_15h30.55.694,auditory_ldt_2023_esp_list2,2021.1.1,Win32,61.51574803,,,1,1,1.0577,0,25,25,25,1,1,,
,,,,,,,,,,,,colia,InflectionalVerbs,NA,NA,NA,NA,NA,NA,pseudoword,2,colia.wav,right,,ADV_EN_28,2023-09-06_15h30.55.694,auditory_ldt_2023_esp_list2,2021.1.1,Win32,61.51574803,,,0,1,0.9969,0,26,26,26,1,0,,
,,,,,,,,,,,,pedia,InflectionalVerbs,NA,NA,NA,2,High,50.1,word,2,pedia.wav,left,,ADV_EN_28,2023-09-06_15h30.55.694,auditory_ldt_2023_esp_list2,2021.1.1,Win32,61.51574803,,,1,1,1.2731,0,27,27,27,1,1,,
,,,,,,,,,,,,puertito,morfosyllable,diferente,NA,NA,NA,NA,NA,word,"1,2and3",puertito.wav,left,,ADV_EN_28,2023-09-06_15h30.55.694,auditory_ldt_2023_esp_list2,2021.1.1,Win32,61.51574803,,,1,1,0.8834,0,28,28,28,1,1,,
,,,,,,,,,,,,destrudar,visuospatial,NA,NA,NA,NA,NA,NA,pseudoword,"1,2and3",destrudar.wav,right,,ADV_EN_28,2023-09-06_15h30.55.694,auditory_ldt_2023_esp_list2,2021.1.1,Win32,61.51574803,,,0,1,1.0845,0,29,29,29,1,0,,
,,,,,,,,,,,,piolsuta,morfosyllable,NA,NA,NA,NA,NA,NA,pseudoword,"1,2and3",piolsuta.wav,right,,ADV_EN_28,2023-09-06_15h30.55.694,auditory_ldt_2023_esp_list2,2021.1.1,Win32,61.51574803,,,0,1,1.0331,0,30,30,30,1,0,,
,,,,,,,,,,,,vertiais,InflectionalVerbs,NA,NA,NA,4,Low,1.24,word,2,vertiais.wav,left,,ADV_EN_28,2023-09-06_15h30.55.694,auditory_ldt_2023_esp_list2,2021.1.1,Win32,61.51574803,,,1,1,1.3979,0,31,31,31,1,1,,
,,,,,,,,,,,,torito,morfosyllable,diferente,NA,NA,NA,NA,NA,word,"1,2and3",torito.wav,left,,ADV_EN_28,2023-09-06_15h30.55.694,auditory_ldt_2023_esp_list2,2021.1.1,Win32,61.51574803,,,1,1,0.9693,0,32,32,32,1,1,,
,,,,,,,,,,,,litruto,morfosyllable,NA,NA,NA,NA,NA,NA,pseudoword,"1,2and3",litruto.wav,right,,ADV_EN_28,2023-09-06_15h30.55.694,auditory_ldt_2023_esp_list2,2021.1.1,Win32,61.51574803,,,0,1,1.1058,0,33,33,33,1,0,,
,,,,,,,,,,,,caiais,InflectionalVerbs,NA,NA,NA,4,High,84.38,word,2,caiais.wav,left,,ADV_EN_28,2023-09-06_15h30.55.694,auditory_ldt_2023_esp_list2,2021.1.1,Win32,61.51574803,,,0,0,1.7723,0,34,34,34,1,1,,
,,,,,,,,,,,,reasuto,morfosyllable,NA,NA,NA,NA,NA,NA,pseudoword,"1,2and3",reasuto.wav,right,,ADV_EN_28,2023-09-06_15h30.55.694,auditory_ldt_2023_esp_list2,2021.1.1,Win32,61.51574803,,,0,1,2.1646,0,35,35,35,1,0,,
,,,,,,,,,,,,tosia,InflectionalVerbs,NA,NA,NA,2,Low,1.42,word,2,tosia.wav,left,,ADV_EN_28,2023-09-06_15h30.55.694,auditory_ldt_2023_esp_list2,2021.1.1,Win32,61.51574803,,,1,1,1.088,0,36,36,36,1,1,,
,,,,,,,,,,,,arrastrar,visuospatial,NA,NA,yes,NA,NA,NA,word,"1,2and3",arrastrar.wav,left,,ADV_EN_28,2023-09-06_15h30.55.694,auditory_ldt_2023_esp_list2,2021.1.1,Win32,61.51574803,,,1,1,1.4829,0,37,37,37,1,1,,
,,,,,,,,,,,,desplazar,visuospatial,NA,NA,yes,NA,NA,NA,word,"1,2and3",desplazar.wav,left,,ADV_EN_28,2023-09-06_15h30.55.694,auditory_ldt_2023_esp_list2,2021.1.1,Win32,61.51574803,,,1,1,1.4174,0,38,38,38,1,1,,
,,,,,,,,,,,,trinsuto,morfosyllable,NA,NA,NA,NA,NA,NA,pseudoword,"1,2and3",trinsuto.wav,right,,ADV_EN_28,2023-09-06_15h30.55.694,auditory_ldt_2023_esp_list2,2021.1.1,Win32,61.51574803,,,0,1,1.0044,0,39,39,39,1,0,,
,,,,,,,,,,,,limuto,morfosyllable,NA,NA,NA,NA,NA,NA,pseudoword,"1,2and3",limuto.wav,right,,ADV_EN_28,2023-09-06_15h30.55.694,auditory_ldt_2023_esp_list2,2021.1.1,Win32,61.51574803,,,0,1,0.9024,0,40,40,40,1,0,,
,,,,,,,,,,,,afirmar,visuospatial,NA,NA,no,NA,NA,NA,word,"1,2and3",afirmar.wav,left,,ADV_EN_28,2023-09-06_15h30.55.694,auditory_ldt_2023_esp_list2,2021.1.1,Win32,61.51574803,,,1,1,1.4386,0,41,41,41,1,1,,
,,,,,,,,,,,,plensuto,morfosyllable,NA,NA,NA,NA,NA,NA,pseudoword,"1,2and3",plensuto.wav,right,,ADV_EN_28,2023-09-06_15h30.55.694,auditory_ldt_2023_esp_list2,2021.1.1,Win32,61.51574803,,,0,1,1.0716,0,42,42,42,1,0,,
,,,,,,,,,,,,metia,InflectionalVerbs,NA,NA,NA,2,High,23.09,word,2,metia.wav,left,,ADV_EN_28,2023-09-06_15h30.55.694,auditory_ldt_2023_esp_list2,2021.1.1,Win32,61.51574803,,,1,1,1.0154,0,43,43,43,1,1,,
,,,,,,,,,,,,conito,morfosyllable,diferente,NA,NA,NA,NA,NA,word,"1,2and3",conito.wav,left,,ADV_EN_28,2023-09-06_15h30.55.694,auditory_ldt_2023_esp_list2,2021.1.1,Win32,61.51574803,,,1,1,0.9083,0,44,44,44,1,1,,
,,,,,,,,,,,,ramita,morfosyllable,diferente,NA,NA,NA,NA,NA,word,"1,2and3",ramita.wav,left,,ADV_EN_28,2023-09-06_15h30.55.694,auditory_ldt_2023_esp_list2,2021.1.1,Win32,61.51574803,,,1,1,0.6555,0,45,45,45,1,1,,
,,,,,,,,,,,,curdias,InflectionalVerbs,NA,NA,NA,NA,NA,NA,pseudoword,2,curdias.wav,right,,ADV_EN_28,2023-09-06_15h30.55.694,auditory_ldt_2023_esp_list2,2021.1.1,Win32,61.51574803,,,0,1,1.0539,0,46,46,46,1,0,,
,,,,,,,,,,,,desfantar,visuospatial,NA,NA,NA,NA,NA,NA,pseudoword,"1,2and3",desfantar.wav,right,,ADV_EN_28,2023-09-06_15h30.55.694,auditory_ldt_2023_esp_list2,2021.1.1,Win32,61.51574803,,,0,1,1.0707,0,47,47,47,1,0,,
,,,,,,,,,,,,despegar,visuospatial,NA,NA,yes,NA,NA,NA,word,"1,2and3",despegar.wav,left,,ADV_EN_28,2023-09-06_15h30.55.694,auditory_ldt_2023_esp_list2,2021.1.1,Win32,61.51574803,,,1,1,0.8875,0,48,48,48,1,1,,
,,,,,,,,,,,,desglamar,visuospatial,NA,NA,NA,NA,NA,NA,pseudoword,"1,2and3",desglamar.wav,right,,ADV_EN_28,2023-09-06_15h30.55.694,auditory_ldt_2023_esp_list2,2021.1.1,Win32,61.51574803,,,0,1,1.0894,0,49,49,49,1,0,,
,,,,,,,,,,,,alargar,visuospatial,NA,NA,yes,NA,NA,NA,word,"1,2and3",alargar.wav,left,,ADV_EN_28,2023-09-06_15h30.55.694,auditory_ldt_2023_esp_list2,2021.1.1,Win32,61.51574803,,,1,1,0.904,0,50,50,50,1,1,,
,,,,,,,,,,,,mordias,InflectionalVerbs,NA,NA,NA,3,Low,3.55,word,2,mordias.wav,left,,ADV_EN_28,2023-09-06_15h30.55.694,auditory_ldt_2023_esp_list2,2021.1.1,Win32,61.51574803,,,1,1,2.0231,0,51,51,51,1,1,,
,,,,,,,,,,,,dedito,morfosyllable,diferente,NA,NA,NA,NA,NA,word,"1,2and3",dedito.wav,left,,ADV_EN_28,2023-09-06_15h30.55.694,auditory_ldt_2023_esp_list2,2021.1.1,Win32,61.51574803,,,1,1,0.7537,0,52,52,52,1,1,,
,,,,,,,,,,,,asuibar,visuospatial,NA,NA,NA,NA,NA,NA,pseudoword,"1,2and3",asuibar.wav,right,,ADV_EN_28,2023-09-06_15h30.55.694,auditory_ldt_2023_esp_list2,2021.1.1,Win32,61.51574803,,,0,1,0.9374,0,53,53,53,1,0,,
,,,,,,,,,,,,amurdar,visuospatial,NA,NA,NA,NA,NA,NA,pseudoword,"1,2and3",amurdar.wav,right,,ADV_EN_28,2023-09-06_15h30.55.694,auditory_ldt_2023_esp_list2,2021.1.1,Win32,61.51574803,,,0,1,1.0038,0,54,54,54,1,0,,
,,,,,,,,,,,,vociais,InflectionalVerbs,NA,NA,NA,NA,NA,NA,pseudoword,2,vociais.wav,right,,ADV_EN_28,2023-09-06_15h30.55.694,auditory_ldt_2023_esp_list2,2021.1.1,Win32,61.51574803,,,0,1,1.6882,0,55,55,55,1,0,,
,,,,,,,,,,,,gelcito,morfosyllable,coincidente,3,NA,NA,NA,NA,word,"1,2and3",gelcito.wav,left,,ADV_EN_28,2023-09-06_15h30.55.694,auditory_ldt_2023_esp_list2,2021.1.1,Win32,61.51574803,,,0,0,0.9714,0,56,56,56,1,1,,
,,,,,,,,,,,,yacias,InflectionalVerbs,NA,NA,NA,3,Low,1.42,word,2,yacias.wav,left,,ADV_EN_28,2023-09-06_15h30.55.694,auditory_ldt_2023_esp_list2,2021.1.1,Win32,61.51574803,,,1,1,1.0722,0,57,57,57,1,1,,
,,,,,,,,,,,,huevito,morfosyllable,diferente,NA,NA,NA,NA,NA,word,"1,2and3",huevito.wav,left,,ADV_EN_28,2023-09-06_15h30.55.694,auditory_ldt_2023_esp_list2,2021.1.1,Win32,61.51574803,,,1,1,1.5739,0,58,58,58,1,1,,
,,,,,,,,,,,,corriais,InflectionalVerbs,NA,NA,NA,4,High,51.87,word,2,corriais.wav,left,,ADV_EN_28,2023-09-06_15h30.55.694,auditory_ldt_2023_esp_list2,2021.1.1,Win32,61.51574803,,,1,1,1.0715,0,59,59,59,1,1,,
,,,,,,,,,,,,afemar,visuospatial,NA,NA,NA,NA,NA,NA,pseudoword,"1,2and3",afemar.wav,right,,ADV_EN_28,2023-09-06_15h30.55.694,auditory_ldt_2023_esp_list2,2021.1.1,Win32,61.51574803,,,0,1,0.8841,0,60,60,60,1,0,,
,,,,,,,,,,,,kemuta,morfosyllable,NA,NA,NA,NA,NA,NA,pseudoword,"1,2and3",kemuta.wav,right,,ADV_EN_28,2023-09-06_15h30.55.694,auditory_ldt_2023_esp_list2,2021.1.1,Win32,61.51574803,,,0,1,0.9169,0,61,61,61,1,0,,
,,,,,,,,,,,,moliais,InflectionalVerbs,NA,NA,NA,4,Low,0.71,word,2,moliais.wav,left,,ADV_EN_28,2023-09-06_15h30.55.694,auditory_ldt_2023_esp_list2,2021.1.1,Win32,61.51574803,,,1,1,2.788,0,62,62,62,1,1,,
,,,,,,,,,,,,acortar,visuospatial,NA,NA,yes,NA,NA,NA,word,"1,2and3",acortar.wav,left,,ADV_EN_28,2023-09-06_15h30.55.694,auditory_ldt_2023_esp_list2,2021.1.1,Win32,61.51574803,,,1,1,1.2038,0,63,63,63,1,1,,
,,,,,,,,,,,,apencrar,visuospatial,NA,NA,NA,NA,NA,NA,pseudoword,"1,2and3",apencrar.wav,right,,ADV_EN_28,2023-09-06_15h30.55.694,auditory_ldt_2023_esp_list2,2021.1.1,Win32,61.51574803,,,0,1,1.4243,0,64,64,64,1,0,,
,,,,,,,,,,,,buria,InflectionalVerbs,NA,NA,NA,NA,NA,NA,pseudoword,2,buria.wav,right,,ADV_EN_28,2023-09-06_15h30.55.694,auditory_ldt_2023_esp_list2,2021.1.1,Win32,61.51574803,,,0,1,1.2204,0,65,65,65,1,0,,
,,,,,,,,,,,,seguia,InflectionalVerbs,NA,NA,NA,2,High,144.42,word,2,seguia.wav,left,,ADV_EN_28,2023-09-06_15h30.55.694,auditory_ldt_2023_esp_list2,2021.1.1,Win32,61.51574803,,,1,1,1.0493,0,66,66,66,1,1,,
,,,,,,,,,,,,descrefiar,visuospatial,NA,NA,NA,NA,NA,NA,pseudoword,"1,2and3",descrefiar.wav,right,,ADV_EN_28,2023-09-06_15h30.55.694,auditory_ldt_2023_esp_list2,2021.1.1,Win32,61.51574803,,,0,1,1.1033,0,67,67,67,1,0,,
,,,,,,,,,,,,ecrias,InflectionalVerbs,NA,NA,NA,NA,NA,NA,pseudoword,2,ecrias.wav,right,,ADV_EN_28,2023-09-06_15h30.55.694,auditory_ldt_2023_esp_list2,2021.1.1,Win32,61.51574803,,,0,1,1.0005,0,68,68,68,1,0,,
,,,,,,,,,,,,leguto,morfosyllable,NA,NA,NA,NA,NA,NA,pseudoword,"1,2and3",leguto.wav,right,,ADV_EN_28,2023-09-06_15h30.55.694,auditory_ldt_2023_esp_list2,2021.1.1,Win32,61.51574803,,,0,1,0.9093,0,69,69,69,1,0,,
,,,,,,,,,,,,besito,morfosyllable,diferente,NA,NA,NA,NA,NA,word,"1,2and3",besito.wav,left,,ADV_EN_28,2023-09-06_15h30.55.694,auditory_ldt_2023_esp_list2,2021.1.1,Win32,61.51574803,,,1,1,0.7522,0,70,70,70,1,1,,
,,,,,,,,,,,,veniais,InflectionalVerbs,NA,NA,NA,4,High,50.81,word,2,veniais.wav,left,,ADV_EN_28,2023-09-06_15h30.55.694,auditory_ldt_2023_esp_list2,2021.1.1,Win32,61.51574803,,,1,1,1.2534,0,71,71,71,1,1,,
,,,,,,,,,,,,anular,visuospatial,NA,NA,no,NA,NA,NA,word,"1,2and3",anular.wav,left,,ADV_EN_28,2023-09-06_15h30.55.694,auditory_ldt_2023_esp_list2,2021.1.1,Win32,61.51574803,,,1,1,1.2537,0,72,72,72,1,1,,
,,,,,,,,,,,,endia,InflectionalVerbs,NA,NA,NA,NA,NA,NA,pseudoword,2,endia.wav,right,,ADV_EN_28,2023-09-06_15h30.55.694,auditory_ldt_2023_esp_list2,2021.1.1,Win32,61.51574803,,,0,1,1.5203,0,73,73,73,1,0,,
,,,,,,,,,,,,cedias,InflectionalVerbs,NA,NA,NA,3,Low,13.68,word,2,cedias.wav,left,,ADV_EN_28,2023-09-06_15h30.55.694,auditory_ldt_2023_esp_list2,2021.1.1,Win32,61.51574803,,,1,1,2.4854,0,74,74,74,1,1,,
,,,,,,,,,,,,aprongar,visuospatial,NA,NA,NA,NA,NA,NA,pseudoword,"1,2and3",aprongar.wav,right,,ADV_EN_28,2023-09-06_15h30.55.694,auditory_ldt_2023_esp_list2,2021.1.1,Win32,61.51574803,,,0,1,1.5044,0,75,75,75,1,0,,
,,,,,,,,,,,,sepota,morfosyllable,NA,NA,NA,NA,NA,NA,pseudoword,"1,2and3",sepota.wav,right,,ADV_EN_28,2023-09-06_15h30.55.694,auditory_ldt_2023_esp_list2,2021.1.1,Win32,61.51574803,,,0,1,0.9431,0,76,76,76,1,0,,
,,,,,,,,,,,,gemias,InflectionalVerbs,NA,NA,NA,3,Low,1.42,word,2,gemias.wav,left,,ADV_EN_28,2023-09-06_15h30.55.694,auditory_ldt_2023_esp_list2,2021.1.1,Win32,61.51574803,,,1,1,0.9476,0,77,77,77,1,1,,
,,,,,,,,,,,,honia,InflectionalVerbs,NA,NA,NA,NA,NA,NA,pseudoword,2,honia.wav,right,,ADV_EN_28,2023-09-06_15h30.55.694,auditory_ldt_2023_esp_list2,2021.1.1,Win32,61.51574803,,,0,1,1.1316,0,78,78,78,1,0,,
,,,,,,,,,,,,laguito,morfosyllable,diferente,NA,NA,NA,NA,NA,word,"1,2and3",laguito.wav,left,,ADV_EN_28,2023-09-06_15h30.55.694,auditory_ldt_2023_esp_list2,2021.1.1,Win32,61.51574803,,,1,1,1.4396,0,79,79,79,1,1,,
,,,,,,,,,,,,fegias,InflectionalVerbs,NA,NA,NA,NA,NA,NA,pseudoword,2,fegias.wav,right,,ADV_EN_28,2023-09-06_15h30.55.694,auditory_ldt_2023_esp_list2,2021.1.1,Win32,61.51574803,,,0,1,1.7848,0,80,80,80,1,0,,
,,,,,,,,,,,,fundiais,InflectionalVerbs,NA,NA,NA,4,Low,1.78,word,2,fundiais.wav,left,,ADV_EN_28,2023-09-06_15h30.55.694,auditory_ldt_2023_esp_list2,2021.1.1,Win32,61.51574803,,,1,1,1.3661,0,81,81,81,1,1,,
,,,,,,,,,,,,aclarar,visuospatial,NA,NA,no,NA,NA,NA,word,"1,2and3",aclarar.wav,left,,ADV_EN_28,2023-09-06_15h30.55.694,auditory_ldt_2023_esp_list2,2021.1.1,Win32,61.51574803,,,1,1,0.95,0,82,82,82,1,1,,
,,,,,,,,,,,,uavuto,morfosyllable,NA,NA,NA,NA,NA,NA,pseudoword,"1,2and3",uavuto.wav,right,,ADV_EN_28,2023-09-06_15h30.55.694,auditory_ldt_2023_esp_list2,2021.1.1,Win32,61.51574803,,,0,1,1.8987,0,83,83,83,1,0,,
,,,,,,,,,,,,pumias,InflectionalVerbs,NA,NA,NA,NA,NA,NA,pseudoword,2,pumias.wav,right,,ADV_EN_28,2023-09-06_15h30.55.694,auditory_ldt_2023_esp_list2,2021.1.1,Win32,61.51574803,,,0,1,1.4881,0,84,84,84,1,0,,
,,,,,,,,,,,,naciais,InflectionalVerbs,NA,NA,NA,4,High,21.67,word,2,naciais.wav,left,,ADV_EN_28,2023-09-06_15h30.55.694,auditory_ldt_2023_esp_list2,2021.1.1,Win32,61.51574803,,,1,1,1.5312,0,85,85,85,1,1,,
,,,,,,,,,,,,pensuto,morfosyllable,NA,NA,NA,NA,NA,NA,pseudoword,"1,2and3",pensuto.wav,right,,ADV_EN_28,2023-09-06_15h30.55.694,auditory_ldt_2023_esp_list2,2021.1.1,Win32,61.51574803,,,0,1,0.76,0,86,86,86,1,0,,
,,,,,,,,,,,,draia,InflectionalVerbs,NA,NA,NA,NA,NA,NA,pseudoword,2,draia.wav,right,,ADV_EN_28,2023-09-06_15h30.55.694,auditory_ldt_2023_esp_list2,2021.1.1,Win32,61.51574803,,,0,1,1.3477,0,87,87,87,1,0,,
,,,,,,,,,,,,batiais,InflectionalVerbs,NA,NA,NA,4,Low,6.4,word,2,batiais.wav,left,,ADV_EN_28,2023-09-06_15h30.55.694,auditory_ldt_2023_esp_list2,2021.1.1,Win32,61.51574803,,,1,1,3.6006,0,88,88,88,1,1,,
,,,,,,,,,,,,plancito,morfosyllable,coincidente,4,NA,NA,NA,NA,word,"1,2and3",plancito.wav,left,,ADV_EN_28,2023-09-06_15h30.55.694,auditory_ldt_2023_esp_list2,2021.1.1,Win32,61.51574803,,,0,0,0.7104,0,89,89,89,1,1,,
,,,,,,,,,,,,noias,InflectionalVerbs,NA,NA,NA,NA,NA,NA,pseudoword,2,noias.wav,right,,ADV_EN_28,2023-09-06_15h30.55.694,auditory_ldt_2023_esp_list2,2021.1.1,Win32,61.51574803,,,0,1,1.2142,0,90,90,90,1,0,,
,,,,,,,,,,,,tejiais,InflectionalVerbs,NA,NA,NA,4,Low,4.26,word,2,tejiais.wav,left,,ADV_EN_28,2023-09-06_15h30.55.694,auditory_ldt_2023_esp_list2,2021.1.1,Win32,61.51574803,,,1,1,2.0148,0,91,91,91,1,1,,
,,,,,,,,,,,,anotar,visuospatial,NA,NA,no,NA,NA,NA,word,"1,2and3",anotar.wav,left,,ADV_EN_28,2023-09-06_15h30.55.694,auditory_ldt_2023_esp_list2,2021.1.1,Win32,61.51574803,,,1,1,1.0551,0,92,92,92,1,1,,
,,,,,,,,,,,,didias,InflectionalVerbs,NA,NA,NA,NA,NA,NA,pseudoword,2,didias.wav,right,,ADV_EN_28,2023-09-06_15h30.55.694,auditory_ldt_2023_esp_list2,2021.1.1,Win32,61.51574803,,,1,0,1.4884,0,93,93,93,1,0,,
,,,,,,,,,,,,paria,InflectionalVerbs,NA,NA,NA,2,Low,5.86,word,2,paria.wav,left,,ADV_EN_28,2023-09-06_15h30.55.694,auditory_ldt_2023_esp_list2,2021.1.1,Win32,61.51574803,,,0,0,1.0316,0,94,94,94,1,1,,
,,,,,,,,,,,,despreciar,visuospatial,NA,NA,no,NA,NA,NA,word,"1,2and3",despreciar.wav,left,,ADV_EN_28,2023-09-06_15h30.55.694,auditory_ldt_2023_esp_list2,2021.1.1,Win32,61.51574803,,,1,1,1.5988,0,95,95,95,1,1,,
,,,,,,,,,,,,abrias,InflectionalVerbs,NA,NA,NA,3,High,48.85,word,2,abrias.wav,left,,ADV_EN_28,2023-09-06_15h30.55.694,auditory_ldt_2023_esp_list2,2021.1.1,Win32,61.51574803,,,1,1,0.9009,0,96,96,96,1,1,,
,,,,,,,,,,,,sopita,morfosyllable,diferente,NA,NA,NA,NA,NA,word,"1,2and3",sopita.wav,left,,ADV_EN_28,2023-09-06_15h30.55.694,auditory_ldt_2023_esp_list2,2021.1.1,Win32,61.51574803,,,1,1,0.7327,0,97,97,97,1,1,,
,,,,,,,,,,,,apirdar,visuospatial,NA,NA,NA,NA,NA,NA,pseudoword,"1,2and3",apirdar.wav,right,,ADV_EN_28,2023-09-06_15h30.55.694,auditory_ldt_2023_esp_list2,2021.1.1,Win32,61.51574803,,,0,1,0.8985,0,98,98,98,1,0,,
,,,,,,,,,,,,clobsuto,morfosyllable,NA,NA,NA,NA,NA,NA,pseudoword,"1,2and3",clobsuto.wav,right,,ADV_EN_28,2023-09-06_15h30.55.694,auditory_ldt_2023_esp_list2,2021.1.1,Win32,61.51574803,,,0,1,0.8868,0,99,99,99,1,0,,
,,,,,,,,,,,,timpia,InflectionalVerbs,NA,NA,NA,NA,NA,NA,pseudoword,2,timpia.wav,right,,ADV_EN_28,2023-09-06_15h30.55.694,auditory_ldt_2023_esp_list2,2021.1.1,Win32,61.51574803,,,0,1,1.0891,0,100,100,100,1,0,,
,,,,,,,,,,,,creia,InflectionalVerbs,NA,NA,NA,2,High,62.35,word,2,creia.wav,left,,ADV_EN_28,2023-09-06_15h30.55.694,auditory_ldt_2023_esp_list2,2021.1.1,Win32,61.51574803,,,1,1,0.8465,0,101,101,101,1,1,,
,,,,,,,,,,,,juancito,morfosyllable,coincidente,4,NA,NA,NA,NA,word,"1,2and3",juancito.wav,left,,ADV_EN_28,2023-09-06_15h30.55.694,auditory_ldt_2023_esp_list2,2021.1.1,Win32,61.51574803,,,1,1,1.2508,0,102,102,102,1,1,,
,,,,,,,,,,,,torcias,InflectionalVerbs,NA,NA,NA,3,Low,1.24,word,2,torcias.wav,left,,ADV_EN_28,2023-09-06_15h30.55.694,auditory_ldt_2023_esp_list2,2021.1.1,Win32,61.51574803,,,1,1,2.3921,0,103,103,103,1,1,,
,,,,,,,,,,,,trencito,morfosyllable,coincidente,4,NA,NA,NA,NA,word,"1,2and3",trencito.wav,left,,ADV_EN_28,2023-09-06_15h30.55.694,auditory_ldt_2023_esp_list2,2021.1.1,Win32,61.51574803,,,1,1,0.7707,0,104,104,104,1,1,,
,,,,,,,,,,,,reycito,morfosyllable,coincidente,3,NA,NA,NA,NA,word,"1,2and3",reycito.wav,left,,ADV_EN_28,2023-09-06_15h30.55.694,auditory_ldt_2023_esp_list2,2021.1.1,Win32,61.51574803,,,0,0,0.9814,0,105,105,105,1,1,,
,,,,,,,,,,,,vendias,InflectionalVerbs,NA,NA,NA,3,High,22.74,word,2,vendias.wav,left,,ADV_EN_28,2023-09-06_15h30.55.694,auditory_ldt_2023_esp_list2,2021.1.1,Win32,61.51574803,,,1,1,1.0211,0,106,106,106,1,1,,
,,,,,,,,,,,,juonsuto,morfosyllable,NA,NA,NA,NA,NA,NA,pseudoword,"1,2and3",juonsuto.wav,right,,ADV_EN_28,2023-09-06_15h30.55.694,auditory_ldt_2023_esp_list2,2021.1.1,Win32,61.51574803,,,0,1,0.8791,0,107,107,107,1,0,,
,,,,,,,,,,,,flunsuto,morfosyllable,NA,NA,NA,NA,NA,NA,pseudoword,"1,2and3",flunsuto.wav,right,,ADV_EN_28,2023-09-06_15h30.55.694,auditory_ldt_2023_esp_list2,2021.1.1,Win32,61.51574803,,,0,1,0.7538,0,108,108,108,1,0,,
,,,,,,,,,,,,afrontar,visuospatial,NA,NA,no,NA,NA,NA,word,"1,2and3",afrontar.wav,left,,ADV_EN_28,2023-09-06_15h30.55.694,auditory_ldt_2023_esp_list2,2021.1.1,Win32,61.51574803,,,1,1,1.4731,0,109,109,109,1,1,,
,,,,,,,,,,,,vamia,InflectionalVerbs,NA,NA,NA,NA,NA,NA,pseudoword,2,vamia.wav,right,,ADV_EN_28,2023-09-06_15h30.55.694,auditory_ldt_2023_esp_list2,2021.1.1,Win32,61.51574803,,,0,1,1.5406,0,110,110,110,1,0,,
,,,,,,,,,,,,barriais,InflectionalVerbs,NA,NA,NA,4,Low,3.2,word,2,barriais.wav,left,,ADV_EN_28,2023-09-06_15h30.55.694,auditory_ldt_2023_esp_list2,2021.1.1,Win32,61.51574803,,,1,1,1.0415,0,111,111,111,1,1,,
,,,,,,,,,,,,afarbar,visuospatial,NA,NA,NA,NA,NA,NA,pseudoword,"1,2and3",afarbar.wav,right,,ADV_EN_28,2023-09-06_15h30.55.694,auditory_ldt_2023_esp_list2,2021.1.1,Win32,61.51574803,,,0,1,1.1201,0,112,112,112,1,0,,
,,,,,,,,,,,,moelsuta,morfosyllable,NA,NA,NA,NA,NA,NA,pseudoword,"1,2and3",moelsuta.wav,right,,ADV_EN_28,2023-09-06_15h30.55.694,auditory_ldt_2023_esp_list2,2021.1.1,Win32,61.51574803,,,0,1,1.9846,0,113,113,113,1,0,,
,,,,,,,,,,,,pelito,morfosyllable,diferente,NA,NA,NA,NA,NA,word,"1,2and3",pelito.wav,left,,ADV_EN_28,2023-09-06_15h30.55.694,auditory_ldt_2023_esp_list2,2021.1.1,Win32,61.51574803,,,1,1,0.9677,0,114,114,114,1,1,,
,,,,,,,,,,,,nisia,InflectionalVerbs,NA,NA,NA,NA,NA,NA,pseudoword,2,nisia.wav,right,,ADV_EN_28,2023-09-06_15h30.55.694,auditory_ldt_2023_esp_list2,2021.1.1,Win32,61.51574803,,,0,1,2.1892,0,115,115,115,1,0,,
,,,,,,,,,,,,roncito,morfosyllable,coincidente,3,NA,NA,NA,NA,word,"1,2and3",roncito.wav,left,,ADV_EN_28,2023-09-06_15h30.55.694,auditory_ldt_2023_esp_list2,2021.1.1,Win32,61.51574803,,,1,1,1.5908,0,116,116,116,1,1,,
,,,,,,,,,,,,apasfrar,visuospatial,NA,NA,NA,NA,NA,NA,pseudoword,"1,2and3",apasfrar.wav,right,,ADV_EN_28,2023-09-06_15h30.55.694,auditory_ldt_2023_esp_list2,2021.1.1,Win32,61.51574803,,,0,1,1.549,0,117,117,117,1,0,,
,,,,,,,,,,,,julsuto,morfosyllable,NA,NA,NA,NA,NA,NA,pseudoword,"1,2and3",julsuto.wav,right,,ADV_EN_28,2023-09-06_15h30.55.694,auditory_ldt_2023_esp_list2,2021.1.1,Win32,61.51574803,,,0,1,1.0085,0,118,118,118,1,0,,
,,,,,,,,,,,,desbemar,visuospatial,NA,NA,NA,NA,NA,NA,pseudoword,"1,2and3",desbemar.wav,right,,ADV_EN_28,2023-09-06_15h30.55.694,auditory_ldt_2023_esp_list2,2021.1.1,Win32,61.51574803,,,1,0,1.312,0,119,119,119,1,0,,
,,,,,,,,,,,,salia,InflectionalVerbs,NA,NA,NA,2,High,169.12,word,2,salia.wav,left,,ADV_EN_28,2023-09-06_15h30.55.694,auditory_ldt_2023_esp_list2,2021.1.1,Win32,61.51574803,,,1,1,0.9127,0,120,120,120,1,1,,
,,,,,,,,,,,,amanar,visuospatial,NA,NA,NA,NA,NA,NA,pseudoword,"1,2and3",amanar.wav,right,,ADV_EN_28,2023-09-06_15h30.55.694,auditory_ldt_2023_esp_list2,2021.1.1,Win32,61.51574803,,,1,0,0.9708,0,121,121,121,1,0,,
,,,,,,,,,,,,ajanar,visuospatial,NA,NA,NA,NA,NA,NA,pseudoword,"1,2and3",ajanar.wav,right,,ADV_EN_28,2023-09-06_15h30.55.694,auditory_ldt_2023_esp_list2,2021.1.1,Win32,61.51574803,,,0,1,0.6586,0,122,122,122,1,0,,
,,,,,,,,,,,,akirsar,visuospatial,NA,NA,NA,NA,NA,NA,pseudoword,"1,2and3",akirsar.wav,right,,ADV_EN_28,2023-09-06_15h30.55.694,auditory_ldt_2023_esp_list2,2021.1.1,Win32,61.51574803,,,1,0,1.1854,0,123,123,123,1,0,,
,,,,,,,,,,,,lamia,InflectionalVerbs,NA,NA,NA,2,Low,1.07,word,2,lamia.wav,left,,ADV_EN_28,2023-09-06_15h30.55.694,auditory_ldt_2023_esp_list2,2021.1.1,Win32,61.51574803,,,1,1,1.1904,0,124,124,124,1,1,,
,,,,,,,,,,,,destrozar,visuospatial,NA,NA,yes,NA,NA,NA,word,"1,2and3",destrozar.wav,left,,ADV_EN_28,2023-09-06_15h30.55.694,auditory_ldt_2023_esp_list2,2021.1.1,Win32,61.51574803,,,1,1,0.9051,0,125,125,125,1,1,,
,,,,,,,,,,,,kirruto,morfosyllable,NA,NA,NA,NA,NA,NA,pseudoword,"1,2and3",kirruto.wav,right,,ADV_EN_28,2023-09-06_15h30.55.694,auditory_ldt_2023_esp_list2,2021.1.1,Win32,61.51574803,,,0,1,1.0921,0,126,126,126,1,0,,
,,,,,,,,,,,,mielcita,morfosyllable,coincidente,4,NA,NA,NA,NA,word,"1,2and3",mielcita.wav,left,,ADV_EN_28,2023-09-06_15h30.55.694,auditory_ldt_2023_esp_list2,2021.1.1,Win32,61.51574803,,,0,0,1.0789,0,127,127,127,1,1,,
,,,,,,,,,,,,alubar,visuospatial,NA,NA,NA,NA,NA,NA,pseudoword,"1,2and3",alubar.wav,right,,ADV_EN_28,2023-09-06_15h30.55.694,auditory_ldt_2023_esp_list2,2021.1.1,Win32,61.51574803,,,0,1,0.8996,0,128,128,128,1,0,,
,,,,,,,,,,,,florcita,morfosyllable,coincidente,4,NA,NA,NA,NA,word,"1,2and3",florcita.wav,left,,ADV_EN_28,2023-09-06_15h30.55.694,auditory_ldt_2023_esp_list2,2021.1.1,Win32,61.51574803,,,1,1,0.7373,0,129,129,129,1,1,,
,,,,,,,,,,,,ratito,morfosyllable,diferente,NA,NA,NA,NA,NA,word,"1,2and3",ratito.wav,left,,ADV_EN_28,2023-09-06_15h30.55.694,auditory_ldt_2023_esp_list2,2021.1.1,Win32,61.51574803,,,1,1,0.7133,0,130,130,130,1,1,,
,,,,,,,,,,,,kinuto,morfosyllable,NA,NA,NA,NA,NA,NA,pseudoword,"1,2and3",kinuto.wav,right,,ADV_EN_28,2023-09-06_15h30.55.694,auditory_ldt_2023_esp_list2,2021.1.1,Win32,61.51574803,,,0,1,0.7484,0,131,131,131,1,0,,
,,,,,,,,,,,,rensuto,morfosyllable,NA,NA,NA,NA,NA,NA,pseudoword,"1,2and3",rensuto.wav,right,,ADV_EN_28,2023-09-06_15h30.55.694,auditory_ldt_2023_esp_list2,2021.1.1,Win32,61.51574803,,,0,1,0.7909,0,132,132,132,1,0,,
,,,,,,,,,,,,subiais,InflectionalVerbs,NA,NA,NA,4,High,36.77,word,2,subiais.wav,left,,ADV_EN_28,2023-09-06_15h30.55.694,auditory_ldt_2023_esp_list2,2021.1.1,Win32,61.51574803,,,1,1,5.2179,0,133,133,133,1,1,,
,,,,,,,,,,,,cutiais,InflectionalVerbs,NA,NA,NA,NA,NA,NA,pseudoword,2,cutiais.wav,right,,ADV_EN_28,2023-09-06_15h30.55.694,auditory_ldt_2023_esp_list2,2021.1.1,Win32,61.51574803,,,0,1,1.0897,0,134,134,134,1,0,,
,,,,,,,,,,,,puartuto,morfosyllable,NA,NA,NA,NA,NA,NA,pseudoword,"1,2and3",puartuto.wav,right,,ADV_EN_28,2023-09-06_15h30.55.694,auditory_ldt_2023_esp_list2,2021.1.1,Win32,61.51574803,,,0,1,0.9746,0,135,135,135,1,0,,
,,,,,,,,,,,,acallar,visuospatial,NA,NA,no,NA,NA,NA,word,"1,2and3",acallar.wav,left,,ADV_EN_28,2023-09-06_15h30.55.694,auditory_ldt_2023_esp_list2,2021.1.1,Win32,61.51574803,,,0,0,1.4025,0,136,136,136,1,1,,
,,,,,,,,,,,,heria,InflectionalVerbs,NA,NA,NA,2,Low,5.15,word,2,heria.wav,left,,ADV_EN_28,2023-09-06_15h30.55.694,auditory_ldt_2023_esp_list2,2021.1.1,Win32,61.51574803,,,0,0,1.3758,0,137,137,137,1,1,,
,,,,,,,,,,,,clubcito,morfosyllable,coincidente,4,NA,NA,NA,NA,word,"1,2and3",clubcito.wav,left,,ADV_EN_28,2023-09-06_15h30.55.694,auditory_ldt_2023_esp_list2,2021.1.1,Win32,61.51574803,,,0,0,0.8749,0,138,138,138,1,1,,
,,,,,,,,,,,,flancito,morfosyllable,coincidente,4,NA,NA,NA,NA,word,"1,2and3",flancito.wav,left,,ADV_EN_28,2023-09-06_15h30.55.694,auditory_ldt_2023_esp_list2,2021.1.1,Win32,61.51574803,,,1,1,0.7321,0,139,139,139,1,1,,
,,,,,,,,,,,,golcito,morfosyllable,coincidente,3,NA,NA,NA,NA,word,"1,2and3",golcito.wav,left,,ADV_EN_28,2023-09-06_15h30.55.694,auditory_ldt_2023_esp_list2,2021.1.1,Win32,61.51574803,,,1,1,0.5576,0,140,140,140,1,1,,
,,,,,,,,,,,,adentrar,visuospatial,NA,NA,yes,NA,NA,NA,word,"1,2and3",adentrar.wav,left,,ADV_EN_28,2023-09-06_15h30.55.694,auditory_ldt_2023_esp_list2,2021.1.1,Win32,61.51574803,,,1,1,0.8888,0,141,141,141,1,1,,
,,,,,,,,,,,,lu単ia,InflectionalVerbs,NA,NA,NA,NA,NA,NA,pseudoword,2,lu単ia.wav,right,,ADV_EN_28,2023-09-06_15h30.55.694,auditory_ldt_2023_esp_list2,2021.1.1,Win32,61.51574803,,,1,0,0.9221,0,142,142,142,1,0,,
,,,,,,,,,,,,te単ia,InflectionalVerbs,NA,NA,NA,2,Low,0.36,word,2,te単ia.wav,left,,ADV_EN_28,2023-09-06_15h30.55.694,auditory_ldt_2023_esp_list2,2021.1.1,Win32,61.51574803,,,1,1,0.7889,0,143,143,143,1,1,,
,,,,,,,,,,,,agartar,visuospatial,NA,NA,NA,NA,NA,NA,pseudoword,"1,2and3",agartar.wav,right,,ADV_EN_28,2023-09-06_15h30.55.694,auditory_ldt_2023_esp_list2,2021.1.1,Win32,61.51574803,,,0,1,0.9836,0,144,144,144,1,0,,
,,,,,,,,,,,,goiais,InflectionalVerbs,NA,NA,NA,NA,NA,NA,pseudoword,2,goiais.wav,right,,ADV_EN_28,2023-09-06_15h30.55.694,auditory_ldt_2023_esp_list2,2021.1.1,Win32,61.51574803,,,0,1,0.8551,0,145,145,145,1,0,,
,,,,,,,,,,,,rompia,InflectionalVerbs,NA,NA,NA,2,High,35.35,word,2,rompia.wav,left,,ADV_EN_28,2023-09-06_15h30.55.694,auditory_ldt_2023_esp_list2,2021.1.1,Win32,61.51574803,,,1,1,1.0714,0,146,146,146,1,1,,
,,,,,,,,,,,,nulviais,InflectionalVerbs,NA,NA,NA,NA,NA,NA,pseudoword,2,nulviais.wav,right,,ADV_EN_28,2023-09-06_15h30.55.694,auditory_ldt_2023_esp_list2,2021.1.1,Win32,61.51574803,,,0,1,1.0541,0,147,147,147,1,0,,
,,,,,,,,,,,,desconfiar,visuospatial,NA,NA,no,NA,NA,NA,word,"1,2and3",desconfiar.wav,left,,ADV_EN_28,2023-09-06_15h30.55.694,auditory_ldt_2023_esp_list2,2021.1.1,Win32,61.51574803,,,1,1,1.273,0,148,148,148,1,1,,
,,,,,,,,,,,,traias,InflectionalVerbs,NA,NA,NA,3,High,17.41,word,2,traias.wav,left,,ADV_EN_28,2023-09-06_15h30.55.694,auditory_ldt_2023_esp_list2,2021.1.1,Win32,61.51574803,,,1,1,1.4237,0,149,149,149,1,1,,
,,,,,,,,,,,,selsuto,morfosyllable,NA,NA,NA,NA,NA,NA,pseudoword,"1,2and3",selsuto.wav,right,,ADV_EN_28,2023-09-06_15h30.55.694,auditory_ldt_2023_esp_list2,2021.1.1,Win32,61.51574803,,,0,1,2.2291,0,150,150,150,1,0,,
,,,,,,,,,,,,leias,InflectionalVerbs,NA,NA,NA,3,High,70.17,word,2,leias.wav,left,,ADV_EN_28,2023-09-06_15h30.55.694,auditory_ldt_2023_esp_list2,2021.1.1,Win32,61.51574803,,,1,1,3.074,0,151,151,151,1,1,,
,,,,,,,,,,,,barcito,morfosyllable,coincidente,3,NA,NA,NA,NA,word,"1,2and3",barcito.wav,left,,ADV_EN_28,2023-09-06_15h30.55.694,auditory_ldt_2023_esp_list2,2021.1.1,Win32,61.51574803,,,0,0,1.4211,0,152,152,152,1,1,,
,,,,,,,,,,,,aplirar,visuospatial,NA,NA,NA,NA,NA,NA,pseudoword,"1,2and3",aplirar.wav,right,,ADV_EN_28,2023-09-06_15h30.55.694,auditory_ldt_2023_esp_list2,2021.1.1,Win32,61.51574803,,,0,1,1.496,0,153,153,153,1,0,,
,,,,,,,,,,,,bisuto,morfosyllable,NA,NA,NA,NA,NA,NA,pseudoword,"1,2and3",bisuto.wav,right,,ADV_EN_28,2023-09-06_15h30.55.694,auditory_ldt_2023_esp_list2,2021.1.1,Win32,61.51574803,,,0,1,0.7478,0,154,154,154,1,0,,
,,,,,,,,,,,,arentar,visuospatial,NA,NA,NA,NA,NA,NA,pseudoword,"1,2and3",arentar.wav,right,,ADV_EN_28,2023-09-06_15h30.55.694,auditory_ldt_2023_esp_list2,2021.1.1,Win32,61.51574803,,,0,1,0.8711,0,155,155,155,1,0,,
,,,,,,,,,,,,volviais,InflectionalVerbs,NA,NA,NA,4,High,120.09,word,2,volviais.wav,left,,ADV_EN_28,2023-09-06_15h30.55.694,auditory_ldt_2023_esp_list2,2021.1.1,Win32,61.51574803,,,1,1,1.089,0,156,156,156,1,1,,
,,,,,,,,,,,,agromar,visuospatial,NA,NA,NA,NA,NA,NA,pseudoword,"1,2and3",agromar.wav,right,,ADV_EN_28,2023-09-06_15h30.55.694,auditory_ldt_2023_esp_list2,2021.1.1,Win32,61.51574803,,,0,1,0.7422,0,157,157,157,1,0,,
,,,,,,,,,,,,camita,morfosyllable,diferente,NA,NA,NA,NA,NA,word,"1,2and3",camita.wav,left,,ADV_EN_28,2023-09-06_15h30.55.694,auditory_ldt_2023_esp_list2,2021.1.1,Win32,61.51574803,,,1,1,0.9647,0,158,158,158,1,1,,
,,,,,,,,,,,,aprobar,visuospatial,NA,NA,no,NA,NA,NA,word,"1,2and3",aprobar.wav,left,,ADV_EN_28,2023-09-06_15h30.55.694,auditory_ldt_2023_esp_list2,2021.1.1,Win32,61.51574803,,,1,1,1.1716,0,159,159,159,1,1,,
,,,,,,,,,,,,arruinar,visuospatial,NA,NA,no,NA,NA,NA,word,"1,2and3",arruinar.wav,left,,ADV_EN_28,2023-09-06_15h30.55.694,auditory_ldt_2023_esp_list2,2021.1.1,Win32,61.51574803,,,1,1,0.8595,0,160,160,160,1,1,,
,,,,,,,,,,,,pielcita,morfosyllable,coincidente,4,NA,NA,NA,NA,word,"1,2and3",pielcita.wav,left,,ADV_EN_28,2023-09-06_15h30.55.694,auditory_ldt_2023_esp_list2,2021.1.1,Win32,61.51574803,,,1,1,0.8398,0,161,161,161,1,1,,
,,,,,,,,,,,,girtiais,InflectionalVerbs,NA,NA,NA,NA,NA,NA,pseudoword,2,girtiais.wav,right,,ADV_EN_28,2023-09-06_15h30.55.694,auditory_ldt_2023_esp_list2,2021.1.1,Win32,61.51574803,,,0,1,1.3552,0,162,162,162,1,0,,
,,,,,,,,,,,,pancito,morfosyllable,coincidente,3,NA,NA,NA,NA,word,"1,2and3",pancito.wav,left,,ADV_EN_28,2023-09-06_15h30.55.694,auditory_ldt_2023_esp_list2,2021.1.1,Win32,61.51574803,,,1,1,0.6843,0,163,163,163,1,1,,
,,,,,,,,,,,,piluto,morfosyllable,NA,NA,NA,NA,NA,NA,pseudoword,"1,2and3",piluto.wav,right,,ADV_EN_28,2023-09-06_15h30.55.694,auditory_ldt_2023_esp_list2,2021.1.1,Win32,61.51574803,,,0,1,0.8236,0,164,164,164,1,0,,
,,,,,,,,,,,,regias,InflectionalVerbs,NA,NA,NA,3,Low,1.95,word,2,regias.wav,left,,ADV_EN_28,2023-09-06_15h30.55.694,auditory_ldt_2023_esp_list2,2021.1.1,Win32,61.51574803,,,0,0,1.2438,0,165,165,165,1,1,,
,,,,,,,,,,,,pojiais,InflectionalVerbs,NA,NA,NA,NA,NA,NA,pseudoword,2,pojiais.wav,right,,ADV_EN_28,2023-09-06_15h30.55.694,auditory_ldt_2023_esp_list2,2021.1.1,Win32,61.51574803,,,0,1,1.174,0,166,166,166,1,0,,
,,,,,,,,,,,,acercar,visuospatial,NA,NA,yes,NA,NA,NA,word,"1,2and3",acercar.wav,left,,ADV_EN_28,2023-09-06_15h30.55.694,auditory_ldt_2023_esp_list2,2021.1.1,Win32,61.51574803,,,1,1,1.3231,0,167,167,167,1,1,,
,,,,,,,,,,,,apitar,visuospatial,NA,NA,NA,NA,NA,NA,pseudoword,"1,2and3",apitar.wav,right,,ADV_EN_28,2023-09-06_15h30.55.694,auditory_ldt_2023_esp_list2,2021.1.1,Win32,61.51574803,,,0,1,0.972,0,168,168,168,1,0,,
,,,,,,,,,,,,alejar,visuospatial,NA,NA,yes,NA,NA,NA,word,"1,2and3",alejar.wav,left,,ADV_EN_28,2023-09-06_15h30.55.694,auditory_ldt_2023_esp_list2,2021.1.1,Win32,61.51574803,,,1,1,0.9884,0,169,169,169,1,1,,
,,,,,,,,,,,,,,,,,,,,,,,,,ADV_EN_28,2023-09-06_15h30.55.694,auditory_ldt_2023_esp_list2,2021.1.1,Win32,61.51574803,,,,,,,,,,,,space,4.0158
