key_resp.keys,key_resp.rt,key_resp_2.keys,key_resp_2.rt,key_resp_3.keys,key_resp_3.corr,key_resp_3.rt,trials.thisRepN,trials.thisTrialN,trials.thisN,trials.thisIndex,trials.ran,Word,Experiment,root_syllable,phonemes_firstsyllable,spatial_verb,Number_of_morphemes,lexical_freq,lex_freq_lexesp,Item_Type,list,wav,CorrResp,CorrRespNumb,participant,date,expName,psychopyVersion,OS,frameRate,key_resp_4.keys,key_resp_4.rt,key_resp_6.keys,key_resp_6.corr,key_resp_6.rt,trials_2.thisRepN,trials_2.thisTrialN,trials_2.thisN,trials_2.thisIndex,trials_2.ran,CorRespNumb,key_resp_5.keys,key_resp_5.rt
space,18.2474,y,2.7792,0,0,2.8857,0,0,0,0,1,casita,practica,NA,NA,NA,NA,NA,NA,NA,NA,casita.wav,left,1,ADV_EN_20,2023-08-30_12h13.47.570,auditory_ldt_2023_esp_list1,2021.1.1,Win32,59.8372427,,,,,,,,,,,,,
,,,,1,1,0.9013,0,1,1,1,1,acabar,practica,NA,NA,NA,NA,NA,NA,NA,NA,acabar.wav,left,1,ADV_EN_20,2023-08-30_12h13.47.570,auditory_ldt_2023_esp_list1,2021.1.1,Win32,59.8372427,,,,,,,,,,,,,
,,,,0,1,1.2246,0,2,2,2,1,arujar,practica,NA,NA,NA,NA,NA,NA,NA,NA,arujar.wav,right,0,ADV_EN_20,2023-08-30_12h13.47.570,auditory_ldt_2023_esp_list1,2021.1.1,Win32,59.8372427,,,,,,,,,,,,,
,,,,1,1,1.7576,0,3,3,3,1,gatito,practica,NA,NA,NA,NA,NA,NA,NA,NA,gatito.wav,left,1,ADV_EN_20,2023-08-30_12h13.47.570,auditory_ldt_2023_esp_list1,2021.1.1,Win32,59.8372427,,,,,,,,,,,,,
,,,,0,1,3.6194,0,4,4,4,1,deslopar,practica,NA,NA,NA,NA,NA,NA,NA,NA,deslopar.wav,right,0,ADV_EN_20,2023-08-30_12h13.47.570,auditory_ldt_2023_esp_list1,2021.1.1,Win32,59.8372427,,,,,,,,,,,,,
,,,,0,1,0.8336,0,5,5,5,1,masuto,practica,NA,NA,NA,NA,NA,NA,NA,NA,masuto.wav,right,0,ADV_EN_20,2023-08-30_12h13.47.570,auditory_ldt_2023_esp_list1,2021.1.1,Win32,59.8372427,,,,,,,,,,,,,
,,,,,,,,,,,,solcito,morfosyllable,coincidente,3,NA,NA,NA,NA,word,"1,2and3",solcito.wav,left,,ADV_EN_20,2023-08-30_12h13.47.570,auditory_ldt_2023_esp_list1,2021.1.1,Win32,59.8372427,k,4.4854,1,1,2.8487,0,0,0,0,1,1,,
,,,,,,,,,,,,timpiais,InflectionalVerbs,NA,NA,NA,NA,NA,NA,pseudoword,1,timpiais.wav,right,,ADV_EN_20,2023-08-30_12h13.47.570,auditory_ldt_2023_esp_list1,2021.1.1,Win32,59.8372427,,,0,1,1.2941,0,1,1,1,1,0,,
,,,,,,,,,,,,anotar,visuospatial,NA,NA,no,NA,NA,NA,word,"1,2and3",anotar.wav,left,,ADV_EN_20,2023-08-30_12h13.47.570,auditory_ldt_2023_esp_list1,2021.1.1,Win32,59.8372427,,,1,1,0.6423,0,2,2,2,1,1,,
,,,,,,,,,,,,clobsuto,morfosyllable,NA,NA,NA,NA,NA,NA,pseudoword,"1,2and3",clobsuto.wav,right,,ADV_EN_20,2023-08-30_12h13.47.570,auditory_ldt_2023_esp_list1,2021.1.1,Win32,59.8372427,,,0,1,0.7961,0,3,3,3,1,0,,
,,,,,,,,,,,,firrias,InflectionalVerbs,NA,NA,NA,NA,NA,NA,pseudoword,1,firrias.wav,right,,ADV_EN_20,2023-08-30_12h13.47.570,auditory_ldt_2023_esp_list1,2021.1.1,Win32,59.8372427,,,0,1,0.9798,0,4,4,4,1,0,,
,,,,,,,,,,,,acortar,visuospatial,NA,NA,yes,NA,NA,NA,word,"1,2and3",acortar.wav,left,,ADV_EN_20,2023-08-30_12h13.47.570,auditory_ldt_2023_esp_list1,2021.1.1,Win32,59.8372427,,,1,1,0.6559,0,5,5,5,1,1,,
,,,,,,,,,,,,alejar,visuospatial,NA,NA,yes,NA,NA,NA,word,"1,2and3",alejar.wav,left,,ADV_EN_20,2023-08-30_12h13.47.570,auditory_ldt_2023_esp_list1,2021.1.1,Win32,59.8372427,,,1,1,0.5334,0,6,6,6,1,1,,
,,,,,,,,,,,,mielcita,morfosyllable,coincidente,4,NA,NA,NA,NA,word,"1,2and3",mielcita.wav,left,,ADV_EN_20,2023-08-30_12h13.47.570,auditory_ldt_2023_esp_list1,2021.1.1,Win32,59.8372427,,,0,0,1.8678,0,7,7,7,1,1,,
,,,,,,,,,,,,girtias,InflectionalVerbs,NA,NA,NA,NA,NA,NA,pseudoword,1,girtias.wav,right,,ADV_EN_20,2023-08-30_12h13.47.570,auditory_ldt_2023_esp_list1,2021.1.1,Win32,59.8372427,,,0,1,1.8243,0,8,8,8,1,0,,
,,,,,,,,,,,,descrefiar,visuospatial,NA,NA,NA,NA,NA,NA,pseudoword,"1,2and3",descrefiar.wav,right,,ADV_EN_20,2023-08-30_12h13.47.570,auditory_ldt_2023_esp_list1,2021.1.1,Win32,59.8372427,,,0,1,0.9049,0,9,9,9,1,0,,
,,,,,,,,,,,,juancito,morfosyllable,coincidente,4,NA,NA,NA,NA,word,"1,2and3",juancito.wav,left,,ADV_EN_20,2023-08-30_12h13.47.570,auditory_ldt_2023_esp_list1,2021.1.1,Win32,59.8372427,,,1,1,2.4021,0,10,10,10,1,1,,
,,,,,,,,,,,,afrontar,visuospatial,NA,NA,no,NA,NA,NA,word,"1,2and3",afrontar.wav,left,,ADV_EN_20,2023-08-30_12h13.47.570,auditory_ldt_2023_esp_list1,2021.1.1,Win32,59.8372427,,,1,1,1.0223,0,11,11,11,1,1,,
,,,,,,,,,,,,selsuto,morfosyllable,NA,NA,NA,NA,NA,NA,pseudoword,"1,2and3",selsuto.wav,right,,ADV_EN_20,2023-08-30_12h13.47.570,auditory_ldt_2023_esp_list1,2021.1.1,Win32,59.8372427,,,0,1,0.9024,0,12,12,12,1,0,,
,,,,,,,,,,,,goias,InflectionalVerbs,NA,NA,NA,NA,NA,NA,pseudoword,1,goias.wav,right,,ADV_EN_20,2023-08-30_12h13.47.570,auditory_ldt_2023_esp_list1,2021.1.1,Win32,59.8372427,,,0,1,1.5229,0,13,13,13,1,0,,
,,,,,,,,,,,,fundias,InflectionalVerbs,NA,NA,NA,3,Low,1.78,word,1,fundias.wav,left,,ADV_EN_20,2023-08-30_12h13.47.570,auditory_ldt_2023_esp_list1,2021.1.1,Win32,59.8372427,,,1,1,2.6882,0,14,14,14,1,1,,
,,,,,,,,,,,,galsuto,morfosyllable,NA,NA,NA,NA,NA,NA,pseudoword,"1,2and3",galsuto.wav,right,,ADV_EN_20,2023-08-30_12h13.47.570,auditory_ldt_2023_esp_list1,2021.1.1,Win32,59.8372427,,,0,1,0.8192,0,15,15,15,1,0,,
,,,,,,,,,,,,acallar,visuospatial,NA,NA,no,NA,NA,NA,word,"1,2and3",acallar.wav,left,,ADV_EN_20,2023-08-30_12h13.47.570,auditory_ldt_2023_esp_list1,2021.1.1,Win32,59.8372427,,,1,1,1.2613,0,16,16,16,1,1,,
,,,,,,,,,,,,pielcita,morfosyllable,coincidente,4,NA,NA,NA,NA,word,"1,2and3",pielcita.wav,left,,ADV_EN_20,2023-08-30_12h13.47.570,auditory_ldt_2023_esp_list1,2021.1.1,Win32,59.8372427,,,1,1,0.7717,0,17,17,17,1,1,,
,,,,,,,,,,,,apartar,visuospatial,NA,NA,yes,NA,NA,NA,word,"1,2and3",apartar.wav,left,,ADV_EN_20,2023-08-30_12h13.47.570,auditory_ldt_2023_esp_list1,2021.1.1,Win32,59.8372427,,,1,1,0.7688,0,18,18,18,1,1,,
,,,,,,,,,,,,yacia,InflectionalVerbs,NA,NA,NA,2,Low,1.42,word,1,yacia.wav,left,,ADV_EN_20,2023-08-30_12h13.47.570,auditory_ldt_2023_esp_list1,2021.1.1,Win32,59.8372427,,,1,1,0.8552,0,19,19,19,1,1,,
,,,,,,,,,,,,vocias,InflectionalVerbs,NA,NA,NA,NA,NA,NA,pseudoword,1,vocias.wav,right,,ADV_EN_20,2023-08-30_12h13.47.570,auditory_ldt_2023_esp_list1,2021.1.1,Win32,59.8372427,,,1,0,0.8936,0,20,20,20,1,0,,
,,,,,,,,,,,,seguiais,InflectionalVerbs,NA,NA,NA,4,High,144.42,word,1,seguiais.wav,left,,ADV_EN_20,2023-08-30_12h13.47.570,auditory_ldt_2023_esp_list1,2021.1.1,Win32,59.8372427,,,1,1,1.2899,0,21,21,21,1,1,,
,,,,,,,,,,,,curdia,InflectionalVerbs,NA,NA,NA,NA,NA,NA,pseudoword,1,curdia.wav,right,,ADV_EN_20,2023-08-30_12h13.47.570,auditory_ldt_2023_esp_list1,2021.1.1,Win32,59.8372427,,,1,0,2.9762,0,22,22,22,1,0,,
,,,,,,,,,,,,fucia,InflectionalVerbs,NA,NA,NA,NA,NA,NA,pseudoword,1,fucia.wav,right,,ADV_EN_20,2023-08-30_12h13.47.570,auditory_ldt_2023_esp_list1,2021.1.1,Win32,59.8372427,,,0,1,1.5695,0,23,23,23,1,0,,
,,,,,,,,,,,,acercar,visuospatial,NA,NA,yes,NA,NA,NA,word,"1,2and3",acercar.wav,left,,ADV_EN_20,2023-08-30_12h13.47.570,auditory_ldt_2023_esp_list1,2021.1.1,Win32,59.8372427,,,1,1,1.0692,0,24,24,24,1,1,,
,,,,,,,,,,,,abria,InflectionalVerbs,NA,NA,NA,2,High,48.85,word,1,abria.wav,left,,ADV_EN_20,2023-08-30_12h13.47.570,auditory_ldt_2023_esp_list1,2021.1.1,Win32,59.8372427,,,1,1,0.5475,0,25,25,25,1,1,,
,,,,,,,,,,,,borsuto,morfosyllable,NA,NA,NA,NA,NA,NA,pseudoword,"1,2and3",borsuto.wav,right,,ADV_EN_20,2023-08-30_12h13.47.570,auditory_ldt_2023_esp_list1,2021.1.1,Win32,59.8372427,,,0,1,0.5693,0,26,26,26,1,0,,
,,,,,,,,,,,,poesuto,morfosyllable,NA,NA,NA,NA,NA,NA,pseudoword,"1,2and3",poesuto.wav,right,,ADV_EN_20,2023-08-30_12h13.47.570,auditory_ldt_2023_esp_list1,2021.1.1,Win32,59.8372427,,,0,1,0.7374,0,27,27,27,1,0,,
,,,,,,,,,,,,nulvias,InflectionalVerbs,NA,NA,NA,NA,NA,NA,pseudoword,1,nulvias.wav,right,,ADV_EN_20,2023-08-30_12h13.47.570,auditory_ldt_2023_esp_list1,2021.1.1,Win32,59.8372427,,,0,1,2.0363,0,28,28,28,1,0,,
,,,,,,,,,,,,acertar,visuospatial,NA,NA,no,NA,NA,NA,word,"1,2and3",acertar.wav,left,,ADV_EN_20,2023-08-30_12h13.47.570,auditory_ldt_2023_esp_list1,2021.1.1,Win32,59.8372427,,,1,1,0.6757,0,29,29,29,1,1,,
,,,,,,,,,,,,pancito,morfosyllable,coincidente,3,NA,NA,NA,NA,word,"1,2and3",pancito.wav,left,,ADV_EN_20,2023-08-30_12h13.47.570,auditory_ldt_2023_esp_list1,2021.1.1,Win32,59.8372427,,,1,1,0.7122,0,30,30,30,1,1,,
,,,,,,,,,,,,amanar,visuospatial,NA,NA,NA,NA,NA,NA,pseudoword,"1,2and3",amanar.wav,right,,ADV_EN_20,2023-08-30_12h13.47.570,auditory_ldt_2023_esp_list1,2021.1.1,Win32,59.8372427,,,1,0,0.9442,0,31,31,31,1,0,,
,,,,,,,,,,,,camita,morfosyllable,diferente,NA,NA,NA,NA,NA,word,"1,2and3",camita.wav,left,,ADV_EN_20,2023-08-30_12h13.47.570,auditory_ldt_2023_esp_list1,2021.1.1,Win32,59.8372427,,,1,1,0.4743,0,32,32,32,1,1,,
,,,,,,,,,,,,heriais,InflectionalVerbs,NA,NA,NA,4,Low,5.15,word,1,heriais.wav,left,,ADV_EN_20,2023-08-30_12h13.47.570,auditory_ldt_2023_esp_list1,2021.1.1,Win32,59.8372427,,,1,1,0.7842,0,33,33,33,1,1,,
,,,,,,,,,,,,creiais,InflectionalVerbs,NA,NA,NA,4,High,62.35,word,1,creiais.wav,left,,ADV_EN_20,2023-08-30_12h13.47.570,auditory_ldt_2023_esp_list1,2021.1.1,Win32,59.8372427,,,1,1,0.5229,0,34,34,34,1,1,,
,,,,,,,,,,,,teruto,morfosyllable,NA,NA,NA,NA,NA,NA,pseudoword,"1,2and3",teruto.wav,right,,ADV_EN_20,2023-08-30_12h13.47.570,auditory_ldt_2023_esp_list1,2021.1.1,Win32,59.8372427,,,0,1,0.5744,0,35,35,35,1,0,,
,,,,,,,,,,,,plancito,morfosyllable,coincidente,4,NA,NA,NA,NA,word,"1,2and3",plancito.wav,left,,ADV_EN_20,2023-08-30_12h13.47.570,auditory_ldt_2023_esp_list1,2021.1.1,Win32,59.8372427,,,1,1,0.5532,0,36,36,36,1,1,,
,,,,,,,,,,,,rompiais,InflectionalVerbs,NA,NA,NA,4,High,35.35,word,1,rompiais.wav,left,,ADV_EN_20,2023-08-30_12h13.47.570,auditory_ldt_2023_esp_list1,2021.1.1,Win32,59.8372427,,,1,1,0.852,0,37,37,37,1,1,,
,,,,,,,,,,,,batias,InflectionalVerbs,NA,NA,NA,3,Low,6.4,word,1,batias.wav,left,,ADV_EN_20,2023-08-30_12h13.47.570,auditory_ldt_2023_esp_list1,2021.1.1,Win32,59.8372427,,,1,1,0.6667,0,38,38,38,1,1,,
,,,,,,,,,,,,saliais,InflectionalVerbs,NA,NA,NA,4,High,169.12,word,1,saliais.wav,left,,ADV_EN_20,2023-08-30_12h13.47.570,auditory_ldt_2023_esp_list1,2021.1.1,Win32,59.8372427,,,1,1,0.8628,0,39,39,39,1,1,,
,,,,,,,,,,,,sopita,morfosyllable,diferente,NA,NA,NA,NA,NA,word,"1,2and3",sopita.wav,left,,ADV_EN_20,2023-08-30_12h13.47.570,auditory_ldt_2023_esp_list1,2021.1.1,Win32,59.8372427,,,1,1,0.6003,0,40,40,40,1,1,,
,,,,,,,,,,,,pojias,InflectionalVerbs,NA,NA,NA,NA,NA,NA,pseudoword,1,pojias.wav,right,,ADV_EN_20,2023-08-30_12h13.47.570,auditory_ldt_2023_esp_list1,2021.1.1,Win32,59.8372427,,,1,0,2.1504,0,41,41,41,1,0,,
,,,,,,,,,,,,aplirar,visuospatial,NA,NA,NA,NA,NA,NA,pseudoword,"1,2and3",aplirar.wav,right,,ADV_EN_20,2023-08-30_12h13.47.570,auditory_ldt_2023_esp_list1,2021.1.1,Win32,59.8372427,,,0,1,1.023,0,42,42,42,1,0,,
,,,,,,,,,,,,piecito,morfosyllable,coincidente,3,NA,NA,NA,NA,word,"1,2and3",piecito.wav,left,,ADV_EN_20,2023-08-30_12h13.47.570,auditory_ldt_2023_esp_list1,2021.1.1,Win32,59.8372427,,,0,0,1.1305,0,43,43,43,1,1,,
,,,,,,,,,,,,litruto,morfosyllable,NA,NA,NA,NA,NA,NA,pseudoword,"1,2and3",litruto.wav,right,,ADV_EN_20,2023-08-30_12h13.47.570,auditory_ldt_2023_esp_list1,2021.1.1,Win32,59.8372427,,,0,1,0.6929,0,44,44,44,1,0,,
,,,,,,,,,,,,conito,morfosyllable,diferente,NA,NA,NA,NA,NA,word,"1,2and3",conito.wav,left,,ADV_EN_20,2023-08-30_12h13.47.570,auditory_ldt_2023_esp_list1,2021.1.1,Win32,59.8372427,,,1,1,0.6127,0,45,45,45,1,1,,
,,,,,,,,,,,,uavuto,morfosyllable,NA,NA,NA,NA,NA,NA,pseudoword,"1,2and3",uavuto.wav,right,,ADV_EN_20,2023-08-30_12h13.47.570,auditory_ldt_2023_esp_list1,2021.1.1,Win32,59.8372427,,,0,1,0.9509,0,46,46,46,1,0,,
,,,,,,,,,,,,aberfar,visuospatial,NA,NA,NA,NA,NA,NA,pseudoword,"1,2and3",aberfar.wav,right,,ADV_EN_20,2023-08-30_12h13.47.570,auditory_ldt_2023_esp_list1,2021.1.1,Win32,59.8372427,,,0,1,0.7137,0,47,47,47,1,0,,
,,,,,,,,,,,,dedito,morfosyllable,diferente,NA,NA,NA,NA,NA,word,"1,2and3",dedito.wav,left,,ADV_EN_20,2023-08-30_12h13.47.570,auditory_ldt_2023_esp_list1,2021.1.1,Win32,59.8372427,,,1,1,0.4367,0,48,48,48,1,1,,
,,,,,,,,,,,,secliais,InflectionalVerbs,NA,NA,NA,NA,NA,NA,pseudoword,1,secliais.wav,right,,ADV_EN_20,2023-08-30_12h13.47.570,auditory_ldt_2023_esp_list1,2021.1.1,Win32,59.8372427,,,0,1,1.2693,0,49,49,49,1,0,,
,,,,,,,,,,,,venias,InflectionalVerbs,NA,NA,NA,3,High,50.81,word,1,venias.wav,left,,ADV_EN_20,2023-08-30_12h13.47.570,auditory_ldt_2023_esp_list1,2021.1.1,Win32,59.8372427,,,1,1,0.7245,0,50,50,50,1,1,,
,,,,,,,,,,,,perdia,InflectionalVerbs,NA,NA,NA,2,High,78.87,word,1,perdia.wav,left,,ADV_EN_20,2023-08-30_12h13.47.570,auditory_ldt_2023_esp_list1,2021.1.1,Win32,59.8372427,,,1,1,0.4552,0,51,51,51,1,1,,
,,,,,,,,,,,,asuibar,visuospatial,NA,NA,NA,NA,NA,NA,pseudoword,"1,2and3",asuibar.wav,right,,ADV_EN_20,2023-08-30_12h13.47.570,auditory_ldt_2023_esp_list1,2021.1.1,Win32,59.8372427,,,0,1,0.7912,0,52,52,52,1,0,,
,,,,,,,,,,,,anular,visuospatial,NA,NA,no,NA,NA,NA,word,"1,2and3",anular.wav,left,,ADV_EN_20,2023-08-30_12h13.47.570,auditory_ldt_2023_esp_list1,2021.1.1,Win32,59.8372427,,,1,1,0.6568,0,53,53,53,1,1,,
,,,,,,,,,,,,gucias,InflectionalVerbs,NA,NA,NA,NA,NA,NA,pseudoword,1,gucias.wav,right,,ADV_EN_20,2023-08-30_12h13.47.570,auditory_ldt_2023_esp_list1,2021.1.1,Win32,59.8372427,,,0,1,0.7683,0,54,54,54,1,0,,
,,,,,,,,,,,,didia,InflectionalVerbs,NA,NA,NA,NA,NA,NA,pseudoword,1,didia.wav,right,,ADV_EN_20,2023-08-30_12h13.47.570,auditory_ldt_2023_esp_list1,2021.1.1,Win32,59.8372427,,,0,1,0.959,0,55,55,55,1,0,,
,,,,,,,,,,,,corrias,InflectionalVerbs,NA,NA,NA,3,High,51.87,word,1,corrias.wav,left,,ADV_EN_20,2023-08-30_12h13.47.570,auditory_ldt_2023_esp_list1,2021.1.1,Win32,59.8372427,,,1,1,0.7301,0,56,56,56,1,1,,
,,,,,,,,,,,,descansar,visuospatial,NA,NA,no,NA,NA,NA,word,"1,2and3",descansar.wav,left,,ADV_EN_20,2023-08-30_12h13.47.570,auditory_ldt_2023_esp_list1,2021.1.1,Win32,59.8372427,,,1,1,0.6398,0,57,57,57,1,1,,
,,,,,,,,,,,,vasito,morfosyllable,diferente,NA,NA,NA,NA,NA,word,"1,2and3",vasito.wav,left,,ADV_EN_20,2023-08-30_12h13.47.570,auditory_ldt_2023_esp_list1,2021.1.1,Win32,59.8372427,,,0,0,0.7116,0,58,58,58,1,1,,
,,,,,,,,,,,,apirdar,visuospatial,NA,NA,NA,NA,NA,NA,pseudoword,"1,2and3",apirdar.wav,right,,ADV_EN_20,2023-08-30_12h13.47.570,auditory_ldt_2023_esp_list1,2021.1.1,Win32,59.8372427,,,0,1,0.8124,0,59,59,59,1,0,,
,,,,,,,,,,,,plensuto,morfosyllable,NA,NA,NA,NA,NA,NA,pseudoword,"1,2and3",plensuto.wav,right,,ADV_EN_20,2023-08-30_12h13.47.570,auditory_ldt_2023_esp_list1,2021.1.1,Win32,59.8372427,,,0,1,0.6037,0,60,60,60,1,0,,
,,,,,,,,,,,,lamiais,InflectionalVerbs,NA,NA,NA,4,Low,1.07,word,1,lamiais.wav,left,,ADV_EN_20,2023-08-30_12h13.47.570,auditory_ldt_2023_esp_list1,2021.1.1,Win32,59.8372427,,,1,1,0.5738,0,61,61,61,1,1,,
,,,,,,,,,,,,descungiar,visuospatial,NA,NA,NA,NA,NA,NA,pseudoword,"1,2and3",descungiar.wav,right,,ADV_EN_20,2023-08-30_12h13.47.570,auditory_ldt_2023_esp_list1,2021.1.1,Win32,59.8372427,,,1,0,2.2559,0,62,62,62,1,0,,
,,,,,,,,,,,,julsuto,morfosyllable,NA,NA,NA,NA,NA,NA,pseudoword,"1,2and3",julsuto.wav,right,,ADV_EN_20,2023-08-30_12h13.47.570,auditory_ldt_2023_esp_list1,2021.1.1,Win32,59.8372427,,,0,1,1.7675,0,63,63,63,1,0,,
,,,,,,,,,,,,desfantar,visuospatial,NA,NA,NA,NA,NA,NA,pseudoword,"1,2and3",desfantar.wav,right,,ADV_EN_20,2023-08-30_12h13.47.570,auditory_ldt_2023_esp_list1,2021.1.1,Win32,59.8372427,,,1,0,0.9516,0,64,64,64,1,0,,
,,,,,,,,,,,,coliais,InflectionalVerbs,NA,NA,NA,NA,NA,NA,pseudoword,1,coliais.wav,right,,ADV_EN_20,2023-08-30_12h13.47.570,auditory_ldt_2023_esp_list1,2021.1.1,Win32,59.8372427,,,1,0,0.9464,0,65,65,65,1,0,,
,,,,,,,,,,,,lomito,morfosyllable,diferente,NA,NA,NA,NA,NA,word,"1,2and3",lomito.wav,left,,ADV_EN_20,2023-08-30_12h13.47.570,auditory_ldt_2023_esp_list1,2021.1.1,Win32,59.8372427,,,1,1,1.0719,0,66,66,66,1,1,,
,,,,,,,,,,,,desplazar,visuospatial,NA,NA,yes,NA,NA,NA,word,"1,2and3",desplazar.wav,left,,ADV_EN_20,2023-08-30_12h13.47.570,auditory_ldt_2023_esp_list1,2021.1.1,Win32,59.8372427,,,1,1,0.8872,0,67,67,67,1,1,,
,,,,,,,,,,,,desbemar,visuospatial,NA,NA,NA,NA,NA,NA,pseudoword,"1,2and3",desbemar.wav,right,,ADV_EN_20,2023-08-30_12h13.47.570,auditory_ldt_2023_esp_list1,2021.1.1,Win32,59.8372427,,,1,0,1.1305,0,68,68,68,1,0,,
,,,,,,,,,,,,traia,InflectionalVerbs,NA,NA,NA,2,High,17.41,word,1,traia.wav,left,,ADV_EN_20,2023-08-30_12h13.47.570,auditory_ldt_2023_esp_list1,2021.1.1,Win32,59.8372427,,,1,1,0.7192,0,69,69,69,1,1,,
,,,,,,,,,,,,destrozar,visuospatial,NA,NA,yes,NA,NA,NA,word,"1,2and3",destrozar.wav,left,,ADV_EN_20,2023-08-30_12h13.47.570,auditory_ldt_2023_esp_list1,2021.1.1,Win32,59.8372427,,,1,1,0.6098,0,70,70,70,1,1,,
,,,,,,,,,,,,tejias,InflectionalVerbs,NA,NA,NA,3,Low,4.26,word,1,tejias.wav,left,,ADV_EN_20,2023-08-30_12h13.47.570,auditory_ldt_2023_esp_list1,2021.1.1,Win32,59.8372427,,,1,1,0.7243,0,71,71,71,1,1,,
,,,,,,,,,,,,puertito,morfosyllable,diferente,NA,NA,NA,NA,NA,word,"1,2and3",puertito.wav,left,,ADV_EN_20,2023-08-30_12h13.47.570,auditory_ldt_2023_esp_list1,2021.1.1,Win32,59.8372427,,,1,1,0.4823,0,72,72,72,1,1,,
,,,,,,,,,,,,sondia,InflectionalVerbs,NA,NA,NA,NA,NA,NA,pseudoword,1,sondia.wav,right,,ADV_EN_20,2023-08-30_12h13.47.570,auditory_ldt_2023_esp_list1,2021.1.1,Win32,59.8372427,,,0,1,1.8711,0,73,73,73,1,0,,
,,,,,,,,,,,,librito,morfosyllable,diferente,NA,NA,NA,NA,NA,word,"1,2and3",librito.wav,left,,ADV_EN_20,2023-08-30_12h13.47.570,auditory_ldt_2023_esp_list1,2021.1.1,Win32,59.8372427,,,1,1,0.6048,0,74,74,74,1,1,,
,,,,,,,,,,,,agartar,visuospatial,NA,NA,NA,NA,NA,NA,pseudoword,"1,2and3",agartar.wav,right,,ADV_EN_20,2023-08-30_12h13.47.570,auditory_ldt_2023_esp_list1,2021.1.1,Win32,59.8372427,,,1,0,1.0545,0,75,75,75,1,0,,
,,,,,,,,,,,,vertias,InflectionalVerbs,NA,NA,NA,3,Low,1.24,word,1,vertias.wav,left,,ADV_EN_20,2023-08-30_12h13.47.570,auditory_ldt_2023_esp_list1,2021.1.1,Win32,59.8372427,,,1,1,0.6923,0,76,76,76,1,1,,
,,,,,,,,,,,,ajanar,visuospatial,NA,NA,NA,NA,NA,NA,pseudoword,"1,2and3",ajanar.wav,right,,ADV_EN_20,2023-08-30_12h13.47.570,auditory_ldt_2023_esp_list1,2021.1.1,Win32,59.8372427,,,1,0,1.2884,0,77,77,77,1,0,,
,,,,,,,,,,,,besito,morfosyllable,diferente,NA,NA,NA,NA,NA,word,"1,2and3",besito.wav,left,,ADV_EN_20,2023-08-30_12h13.47.570,auditory_ldt_2023_esp_list1,2021.1.1,Win32,59.8372427,,,1,1,0.4461,0,78,78,78,1,1,,
,,,,,,,,,,,,arentar,visuospatial,NA,NA,NA,NA,NA,NA,pseudoword,"1,2and3",arentar.wav,right,,ADV_EN_20,2023-08-30_12h13.47.570,auditory_ldt_2023_esp_list1,2021.1.1,Win32,59.8372427,,,0,1,2.3044,0,79,79,79,1,0,,
,,,,,,,,,,,,fegia,InflectionalVerbs,NA,NA,NA,NA,NA,NA,pseudoword,1,fegia.wav,right,,ADV_EN_20,2023-08-30_12h13.47.570,auditory_ldt_2023_esp_list1,2021.1.1,Win32,59.8372427,,,0,1,0.8772,0,80,80,80,1,0,,
,,,,,,,,,,,,torcia,InflectionalVerbs,NA,NA,NA,2,Low,1.24,word,1,torcia.wav,left,,ADV_EN_20,2023-08-30_12h13.47.570,auditory_ldt_2023_esp_list1,2021.1.1,Win32,59.8372427,,,1,1,0.6674,0,81,81,81,1,1,,
,,,,,,,,,,,,moelsuta,morfosyllable,NA,NA,NA,NA,NA,NA,pseudoword,"1,2and3",moelsuta.wav,right,,ADV_EN_20,2023-08-30_12h13.47.570,auditory_ldt_2023_esp_list1,2021.1.1,Win32,59.8372427,,,0,1,0.7211,0,82,82,82,1,0,,
,,,,,,,,,,,,vesuto,morfosyllable,NA,NA,NA,NA,NA,NA,pseudoword,"1,2and3",vesuto.wav,right,,ADV_EN_20,2023-08-30_12h13.47.570,auditory_ldt_2023_esp_list1,2021.1.1,Win32,59.8372427,,,0,1,0.5385,0,83,83,83,1,0,,
,,,,,,,,,,,,piolsuta,morfosyllable,NA,NA,NA,NA,NA,NA,pseudoword,"1,2and3",piolsuta.wav,right,,ADV_EN_20,2023-08-30_12h13.47.570,auditory_ldt_2023_esp_list1,2021.1.1,Win32,59.8372427,,,0,1,0.3833,0,84,84,84,1,0,,
,,,,,,,,,,,,barrias,InflectionalVerbs,NA,NA,NA,3,Low,3.2,word,1,barrias.wav,left,,ADV_EN_20,2023-08-30_12h13.47.570,auditory_ldt_2023_esp_list1,2021.1.1,Win32,59.8372427,,,1,1,0.5201,0,85,85,85,1,1,,
,,,,,,,,,,,,agromar,visuospatial,NA,NA,NA,NA,NA,NA,pseudoword,"1,2and3",agromar.wav,right,,ADV_EN_20,2023-08-30_12h13.47.570,auditory_ldt_2023_esp_list1,2021.1.1,Win32,59.8372427,,,1,0,0.6189,0,86,86,86,1,0,,
,,,,,,,,,,,,flancito,morfosyllable,coincidente,4,NA,NA,NA,NA,word,"1,2and3",flancito.wav,left,,ADV_EN_20,2023-08-30_12h13.47.570,auditory_ldt_2023_esp_list1,2021.1.1,Win32,59.8372427,,,1,1,0.4538,0,87,87,87,1,1,,
,,,,,,,,,,,,sepota,morfosyllable,NA,NA,NA,NA,NA,NA,pseudoword,"1,2and3",sepota.wav,right,,ADV_EN_20,2023-08-30_12h13.47.570,auditory_ldt_2023_esp_list1,2021.1.1,Win32,59.8372427,,,0,1,0.7779,0,88,88,88,1,0,,
,,,,,,,,,,,,draiais,InflectionalVerbs,NA,NA,NA,NA,NA,NA,pseudoword,1,draiais.wav,right,,ADV_EN_20,2023-08-30_12h13.47.570,auditory_ldt_2023_esp_list1,2021.1.1,Win32,59.8372427,,,0,1,2.2483,0,89,89,89,1,0,,
,,,,,,,,,,,,teñiais,InflectionalVerbs,NA,NA,NA,4,Low,0.36,word,1,teñiais.wav,left,,ADV_EN_20,2023-08-30_12h13.47.570,auditory_ldt_2023_esp_list1,2021.1.1,Win32,59.8372427,,,1,1,0.7178,0,90,90,90,1,1,,
,,,,,,,,,,,,retuto,morfosyllable,NA,NA,NA,NA,NA,NA,pseudoword,"1,2and3",retuto.wav,right,,ADV_EN_20,2023-08-30_12h13.47.570,auditory_ldt_2023_esp_list1,2021.1.1,Win32,59.8372427,,,0,1,0.6241,0,91,91,91,1,0,,
,,,,,,,,,,,,flunsuto,morfosyllable,NA,NA,NA,NA,NA,NA,pseudoword,"1,2and3",flunsuto.wav,right,,ADV_EN_20,2023-08-30_12h13.47.570,auditory_ldt_2023_esp_list1,2021.1.1,Win32,59.8372427,,,0,1,0.9019,0,92,92,92,1,0,,
,,,,,,,,,,,,huevito,morfosyllable,diferente,NA,NA,NA,NA,NA,word,"1,2and3",huevito.wav,left,,ADV_EN_20,2023-08-30_12h13.47.570,auditory_ldt_2023_esp_list1,2021.1.1,Win32,59.8372427,,,1,1,0.5655,0,93,93,93,1,1,,
,,,,,,,,,,,,torito,morfosyllable,diferente,NA,NA,NA,NA,NA,word,"1,2and3",torito.wav,left,,ADV_EN_20,2023-08-30_12h13.47.570,auditory_ldt_2023_esp_list1,2021.1.1,Win32,59.8372427,,,1,1,0.4584,0,94,94,94,1,1,,
,,,,,,,,,,,,destrudar,visuospatial,NA,NA,NA,NA,NA,NA,pseudoword,"1,2and3",destrudar.wav,right,,ADV_EN_20,2023-08-30_12h13.47.570,auditory_ldt_2023_esp_list1,2021.1.1,Win32,59.8372427,,,1,0,1.2007,0,95,95,95,1,0,,
,,,,,,,,,,,,golcito,morfosyllable,coincidente,3,NA,NA,NA,NA,word,"1,2and3",golcito.wav,left,,ADV_EN_20,2023-08-30_12h13.47.570,auditory_ldt_2023_esp_list1,2021.1.1,Win32,59.8372427,,,1,1,0.8722,0,96,96,96,1,1,,
,,,,,,,,,,,,trinsuto,morfosyllable,NA,NA,NA,NA,NA,NA,pseudoword,"1,2and3",trinsuto.wav,right,,ADV_EN_20,2023-08-30_12h13.47.570,auditory_ldt_2023_esp_list1,2021.1.1,Win32,59.8372427,,,0,1,0.5199,0,97,97,97,1,0,,
,,,,,,,,,,,,nacias,InflectionalVerbs,NA,NA,NA,3,High,21.67,word,1,nacias.wav,left,,ADV_EN_20,2023-08-30_12h13.47.570,auditory_ldt_2023_esp_list1,2021.1.1,Win32,59.8372427,,,1,1,0.8027,0,98,98,98,1,1,,
,,,,,,,,,,,,aprobar,visuospatial,NA,NA,no,NA,NA,NA,word,"1,2and3",aprobar.wav,left,,ADV_EN_20,2023-08-30_12h13.47.570,auditory_ldt_2023_esp_list1,2021.1.1,Win32,59.8372427,,,1,1,0.6578,0,99,99,99,1,1,,
,,,,,,,,,,,,aprongar,visuospatial,NA,NA,NA,NA,NA,NA,pseudoword,"1,2and3",aprongar.wav,right,,ADV_EN_20,2023-08-30_12h13.47.570,auditory_ldt_2023_esp_list1,2021.1.1,Win32,59.8372427,,,1,0,0.6571,0,100,100,100,1,0,,
,,,,,,,,,,,,ardiais,InflectionalVerbs,NA,NA,NA,4,Low,3.38,word,1,ardiais.wav,left,,ADV_EN_20,2023-08-30_12h13.47.570,auditory_ldt_2023_esp_list1,2021.1.1,Win32,59.8372427,,,1,1,0.5786,0,101,101,101,1,1,,
,,,,,,,,,,,,mogia,InflectionalVerbs,NA,NA,NA,NA,NA,NA,pseudoword,1,mogia.wav,right,,ADV_EN_20,2023-08-30_12h13.47.570,auditory_ldt_2023_esp_list1,2021.1.1,Win32,59.8372427,,,1,0,1.02,0,102,102,102,1,0,,
,,,,,,,,,,,,alubar,visuospatial,NA,NA,NA,NA,NA,NA,pseudoword,"1,2and3",alubar.wav,right,,ADV_EN_20,2023-08-30_12h13.47.570,auditory_ldt_2023_esp_list1,2021.1.1,Win32,59.8372427,,,1,0,0.9024,0,103,103,103,1,0,,
,,,,,,,,,,,,piluto,morfosyllable,NA,NA,NA,NA,NA,NA,pseudoword,"1,2and3",piluto.wav,right,,ADV_EN_20,2023-08-30_12h13.47.570,auditory_ldt_2023_esp_list1,2021.1.1,Win32,59.8372427,,,0,1,0.6008,0,104,104,104,1,0,,
,,,,,,,,,,,,despreciar,visuospatial,NA,NA,no,NA,NA,NA,word,"1,2and3",despreciar.wav,left,,ADV_EN_20,2023-08-30_12h13.47.570,auditory_ldt_2023_esp_list1,2021.1.1,Win32,59.8372427,,,1,1,0.9921,0,105,105,105,1,1,,
,,,,,,,,,,,,pariais,InflectionalVerbs,NA,NA,NA,4,Low,5.86,word,1,pariais.wav,left,,ADV_EN_20,2023-08-30_12h13.47.570,auditory_ldt_2023_esp_list1,2021.1.1,Win32,59.8372427,,,1,1,0.6585,0,106,106,106,1,1,,
,,,,,,,,,,,,roncito,morfosyllable,coincidente,3,NA,NA,NA,NA,word,"1,2and3",roncito.wav,left,,ADV_EN_20,2023-08-30_12h13.47.570,auditory_ldt_2023_esp_list1,2021.1.1,Win32,59.8372427,,,1,1,0.6238,0,107,107,107,1,1,,
,,,,,,,,,,,,pensuto,morfosyllable,NA,NA,NA,NA,NA,NA,pseudoword,"1,2and3",pensuto.wav,right,,ADV_EN_20,2023-08-30_12h13.47.570,auditory_ldt_2023_esp_list1,2021.1.1,Win32,59.8372427,,,0,1,0.7147,0,108,108,108,1,0,,
,,,,,,,,,,,,afarbar,visuospatial,NA,NA,NA,NA,NA,NA,pseudoword,"1,2and3",afarbar.wav,right,,ADV_EN_20,2023-08-30_12h13.47.570,auditory_ldt_2023_esp_list1,2021.1.1,Win32,59.8372427,,,1,0,1.0861,0,109,109,109,1,0,,
,,,,,,,,,,,,abordar,visuospatial,NA,NA,yes,NA,NA,NA,word,"1,2and3",abordar.wav,left,,ADV_EN_20,2023-08-30_12h13.47.570,auditory_ldt_2023_esp_list1,2021.1.1,Win32,59.8372427,,,1,1,0.6122,0,110,110,110,1,1,,
,,,,,,,,,,,,leguto,morfosyllable,NA,NA,NA,NA,NA,NA,pseudoword,"1,2and3",leguto.wav,right,,ADV_EN_20,2023-08-30_12h13.47.570,auditory_ldt_2023_esp_list1,2021.1.1,Win32,59.8372427,,,1,0,0.5675,0,111,111,111,1,0,,
,,,,,,,,,,,,agarrar,visuospatial,NA,NA,yes,NA,NA,NA,word,"1,2and3",agarrar.wav,left,,ADV_EN_20,2023-08-30_12h13.47.570,auditory_ldt_2023_esp_list1,2021.1.1,Win32,59.8372427,,,1,1,1.5115,0,112,112,112,1,1,,
,,,,,,,,,,,,laguito,morfosyllable,diferente,NA,NA,NA,NA,NA,word,"1,2and3",laguito.wav,left,,ADV_EN_20,2023-08-30_12h13.47.570,auditory_ldt_2023_esp_list1,2021.1.1,Win32,59.8372427,,,1,1,0.6592,0,113,113,113,1,1,,
,,,,,,,,,,,,florcita,morfosyllable,coincidente,4,NA,NA,NA,NA,word,"1,2and3",florcita.wav,left,,ADV_EN_20,2023-08-30_12h13.47.570,auditory_ldt_2023_esp_list1,2021.1.1,Win32,59.8372427,,,1,1,0.5385,0,114,114,114,1,1,,
,,,,,,,,,,,,alargar,visuospatial,NA,NA,yes,NA,NA,NA,word,"1,2and3",alargar.wav,left,,ADV_EN_20,2023-08-30_12h13.47.570,auditory_ldt_2023_esp_list1,2021.1.1,Win32,59.8372427,,,1,1,0.5271,0,115,115,115,1,1,,
,,,,,,,,,,,,fulias,InflectionalVerbs,NA,NA,NA,NA,NA,NA,pseudoword,1,fulias.wav,right,,ADV_EN_20,2023-08-30_12h13.47.570,auditory_ldt_2023_esp_list1,2021.1.1,Win32,59.8372427,,,1,0,1.1856,0,116,116,116,1,0,,
,,,,,,,,,,,,apencrar,visuospatial,NA,NA,NA,NA,NA,NA,pseudoword,"1,2and3",apencrar.wav,right,,ADV_EN_20,2023-08-30_12h13.47.570,auditory_ldt_2023_esp_list1,2021.1.1,Win32,59.8372427,,,0,1,0.7547,0,117,117,117,1,0,,
,,,,,,,,,,,,regia,InflectionalVerbs,NA,NA,NA,2,Low,1.95,word,1,regia.wav,left,,ADV_EN_20,2023-08-30_12h13.47.570,auditory_ldt_2023_esp_list1,2021.1.1,Win32,59.8372427,,,1,1,0.7654,0,118,118,118,1,1,,
,,,,,,,,,,,,potiais,InflectionalVerbs,NA,NA,NA,NA,NA,NA,pseudoword,1,potiais.wav,right,,ADV_EN_20,2023-08-30_12h13.47.570,auditory_ldt_2023_esp_list1,2021.1.1,Win32,59.8372427,,,0,1,0.8092,0,119,119,119,1,0,,
,,,,,,,,,,,,metiais,InflectionalVerbs,NA,NA,NA,4,High,23.09,word,1,metiais.wav,left,,ADV_EN_20,2023-08-30_12h13.47.570,auditory_ldt_2023_esp_list1,2021.1.1,Win32,59.8372427,,,1,1,0.731,0,120,120,120,1,1,,
,,,,,,,,,,,,clubcito,morfosyllable,coincidente,4,NA,NA,NA,NA,word,"1,2and3",clubcito.wav,left,,ADV_EN_20,2023-08-30_12h13.47.570,auditory_ldt_2023_esp_list1,2021.1.1,Win32,59.8372427,,,0,0,0.8378,0,121,121,121,1,1,,
,,,,,,,,,,,,arruinar,visuospatial,NA,NA,no,NA,NA,NA,word,"1,2and3",arruinar.wav,left,,ADV_EN_20,2023-08-30_12h13.47.570,auditory_ldt_2023_esp_list1,2021.1.1,Win32,59.8372427,,,1,1,1.3274,0,122,122,122,1,1,,
,,,,,,,,,,,,volvias,InflectionalVerbs,NA,NA,NA,3,High,120.09,word,1,volvias.wav,left,,ADV_EN_20,2023-08-30_12h13.47.570,auditory_ldt_2023_esp_list1,2021.1.1,Win32,59.8372427,,,1,1,1.0884,0,123,123,123,1,1,,
,,,,,,,,,,,,vamiais,InflectionalVerbs,NA,NA,NA,NA,NA,NA,pseudoword,1,vamiais.wav,right,,ADV_EN_20,2023-08-30_12h13.47.570,auditory_ldt_2023_esp_list1,2021.1.1,Win32,59.8372427,,,0,1,0.8222,0,124,124,124,1,0,,
,,,,,,,,,,,,cogia,InflectionalVerbs,NA,NA,NA,2,High,17.76,word,1,cogia.wav,left,,ADV_EN_20,2023-08-30_12h13.47.570,auditory_ldt_2023_esp_list1,2021.1.1,Win32,59.8372427,,,1,1,0.7996,0,125,125,125,1,1,,
,,,,,,,,,,,,mordia,InflectionalVerbs,NA,NA,NA,2,Low,3.55,word,1,mordia.wav,left,,ADV_EN_20,2023-08-30_12h13.47.570,auditory_ldt_2023_esp_list1,2021.1.1,Win32,59.8372427,,,1,1,0.6458,0,126,126,126,1,1,,
,,,,,,,,,,,,subias,InflectionalVerbs,NA,NA,NA,3,High,36.77,word,1,subias.wav,left,,ADV_EN_20,2023-08-30_12h13.47.570,auditory_ldt_2023_esp_list1,2021.1.1,Win32,59.8372427,,,1,1,0.7125,0,127,127,127,1,1,,
,,,,,,,,,,,,desconfiar,visuospatial,NA,NA,no,NA,NA,NA,word,"1,2and3",desconfiar.wav,left,,ADV_EN_20,2023-08-30_12h13.47.570,auditory_ldt_2023_esp_list1,2021.1.1,Win32,59.8372427,,,1,1,0.7007,0,128,128,128,1,1,,
,,,,,,,,,,,,afirmar,visuospatial,NA,NA,no,NA,NA,NA,word,"1,2and3",afirmar.wav,left,,ADV_EN_20,2023-08-30_12h13.47.570,auditory_ldt_2023_esp_list1,2021.1.1,Win32,59.8372427,,,1,1,0.504,0,129,129,129,1,1,,
,,,,,,,,,,,,vendia,InflectionalVerbs,NA,NA,NA,2,High,22.74,word,1,vendia.wav,left,,ADV_EN_20,2023-08-30_12h13.47.570,auditory_ldt_2023_esp_list1,2021.1.1,Win32,59.8372427,,,1,1,0.7349,0,130,130,130,1,1,,
,,,,,,,,,,,,bisuto,morfosyllable,NA,NA,NA,NA,NA,NA,pseudoword,"1,2and3",bisuto.wav,right,,ADV_EN_20,2023-08-30_12h13.47.570,auditory_ldt_2023_esp_list1,2021.1.1,Win32,59.8372427,,,0,1,0.6163,0,131,131,131,1,0,,
,,,,,,,,,,,,despegar,visuospatial,NA,NA,yes,NA,NA,NA,word,"1,2and3",despegar.wav,left,,ADV_EN_20,2023-08-30_12h13.47.570,auditory_ldt_2023_esp_list1,2021.1.1,Win32,59.8372427,,,1,1,0.6029,0,132,132,132,1,1,,
,,,,,,,,,,,,pumia,InflectionalVerbs,NA,NA,NA,NA,NA,NA,pseudoword,1,pumia.wav,right,,ADV_EN_20,2023-08-30_12h13.47.570,auditory_ldt_2023_esp_list1,2021.1.1,Win32,59.8372427,,,0,1,2.3219,0,133,133,133,1,0,,
,,,,,,,,,,,,noia,InflectionalVerbs,NA,NA,NA,NA,NA,NA,pseudoword,1,noia.wav,right,,ADV_EN_20,2023-08-30_12h13.47.570,auditory_ldt_2023_esp_list1,2021.1.1,Win32,59.8372427,,,0,1,0.6859,0,134,134,134,1,0,,
,,,,,,,,,,,,gemia,InflectionalVerbs,NA,NA,NA,2,Low,1.42,word,1,gemia.wav,left,,ADV_EN_20,2023-08-30_12h13.47.570,auditory_ldt_2023_esp_list1,2021.1.1,Win32,59.8372427,,,1,1,0.7871,0,135,135,135,1,1,,
,,,,,,,,,,,,reasuto,morfosyllable,NA,NA,NA,NA,NA,NA,pseudoword,"1,2and3",reasuto.wav,right,,ADV_EN_20,2023-08-30_12h13.47.570,auditory_ldt_2023_esp_list1,2021.1.1,Win32,59.8372427,,,0,1,0.7551,0,136,136,136,1,0,,
,,,,,,,,,,,,reycito,morfosyllable,coincidente,3,NA,NA,NA,NA,word,"1,2and3",reycito.wav,left,,ADV_EN_20,2023-08-30_12h13.47.570,auditory_ldt_2023_esp_list1,2021.1.1,Win32,59.8372427,,,0,0,0.7855,0,137,137,137,1,1,,
,,,,,,,,,,,,barcito,morfosyllable,coincidente,3,NA,NA,NA,NA,word,"1,2and3",barcito.wav,left,,ADV_EN_20,2023-08-30_12h13.47.570,auditory_ldt_2023_esp_list1,2021.1.1,Win32,59.8372427,,,0,0,0.6501,0,138,138,138,1,1,,
,,,,,,,,,,,,endiais,InflectionalVerbs,NA,NA,NA,NA,NA,NA,pseudoword,1,endiais.wav,right,,ADV_EN_20,2023-08-30_12h13.47.570,auditory_ldt_2023_esp_list1,2021.1.1,Win32,59.8372427,,,1,0,1.0359,0,139,139,139,1,0,,
,,,,,,,,,,,,molias,InflectionalVerbs,NA,NA,NA,3,Low,0.71,word,1,molias.wav,left,,ADV_EN_20,2023-08-30_12h13.47.570,auditory_ldt_2023_esp_list1,2021.1.1,Win32,59.8372427,,,1,1,0.6323,0,140,140,140,1,1,,
,,,,,,,,,,,,limuto,morfosyllable,NA,NA,NA,NA,NA,NA,pseudoword,"1,2and3",limuto.wav,right,,ADV_EN_20,2023-08-30_12h13.47.570,auditory_ldt_2023_esp_list1,2021.1.1,Win32,59.8372427,,,0,1,0.5025,0,141,141,141,1,0,,
,,,,,,,,,,,,durcia,InflectionalVerbs,NA,NA,NA,NA,NA,NA,pseudoword,1,durcia.wav,right,,ADV_EN_20,2023-08-30_12h13.47.570,auditory_ldt_2023_esp_list1,2021.1.1,Win32,59.8372427,,,0,1,0.7695,0,142,142,142,1,0,,
,,,,,,,,,,,,leia,InflectionalVerbs,NA,NA,NA,2,High,70.17,word,1,leia.wav,left,,ADV_EN_20,2023-08-30_12h13.47.570,auditory_ldt_2023_esp_list1,2021.1.1,Win32,59.8372427,,,1,1,0.791,0,143,143,143,1,1,,
,,,,,,,,,,,,kemuta,morfosyllable,NA,NA,NA,NA,NA,NA,pseudoword,"1,2and3",kemuta.wav,right,,ADV_EN_20,2023-08-30_12h13.47.570,auditory_ldt_2023_esp_list1,2021.1.1,Win32,59.8372427,,,0,1,0.7253,0,144,144,144,1,0,,
,,,,,,,,,,,,honiais,InflectionalVerbs,NA,NA,NA,NA,NA,NA,pseudoword,1,honiais.wav,right,,ADV_EN_20,2023-08-30_12h13.47.570,auditory_ldt_2023_esp_list1,2021.1.1,Win32,59.8372427,,,0,1,1.4027,0,145,145,145,1,0,,
,,,,,,,,,,,,adentrar,visuospatial,NA,NA,yes,NA,NA,NA,word,"1,2and3",adentrar.wav,left,,ADV_EN_20,2023-08-30_12h13.47.570,auditory_ldt_2023_esp_list1,2021.1.1,Win32,59.8372427,,,1,1,0.7471,0,146,146,146,1,1,,
,,,,,,,,,,,,amurdar,visuospatial,NA,NA,NA,NA,NA,NA,pseudoword,"1,2and3",amurdar.wav,right,,ADV_EN_20,2023-08-30_12h13.47.570,auditory_ldt_2023_esp_list1,2021.1.1,Win32,59.8372427,,,1,0,0.5655,0,147,147,147,1,0,,
,,,,,,,,,,,,caias,InflectionalVerbs,NA,NA,NA,3,High,84.38,word,1,caias.wav,left,,ADV_EN_20,2023-08-30_12h13.47.570,auditory_ldt_2023_esp_list1,2021.1.1,Win32,59.8372427,,,1,1,0.5607,0,148,148,148,1,1,,
,,,,,,,,,,,,pelito,morfosyllable,diferente,NA,NA,NA,NA,NA,word,"1,2and3",pelito.wav,left,,ADV_EN_20,2023-08-30_12h13.47.570,auditory_ldt_2023_esp_list1,2021.1.1,Win32,59.8372427,,,1,1,0.4841,0,149,149,149,1,1,,
,,,,,,,,,,,,trencito,morfosyllable,coincidente,4,NA,NA,NA,NA,word,"1,2and3",trencito.wav,left,,ADV_EN_20,2023-08-30_12h13.47.570,auditory_ldt_2023_esp_list1,2021.1.1,Win32,59.8372427,,,1,1,0.3929,0,150,150,150,1,1,,
,,,,,,,,,,,,flaia,InflectionalVerbs,NA,NA,NA,NA,NA,NA,pseudoword,1,flaia.wav,right,,ADV_EN_20,2023-08-30_12h13.47.570,auditory_ldt_2023_esp_list1,2021.1.1,Win32,59.8372427,,,0,1,1.0412,0,151,151,151,1,0,,
,,,,,,,,,,,,rensuto,morfosyllable,NA,NA,NA,NA,NA,NA,pseudoword,"1,2and3",rensuto.wav,right,,ADV_EN_20,2023-08-30_12h13.47.570,auditory_ldt_2023_esp_list1,2021.1.1,Win32,59.8372427,,,0,1,0.7776,0,152,152,152,1,0,,
,,,,,,,,,,,,remuta,morfosyllable,NA,NA,NA,NA,NA,NA,pseudoword,"1,2and3",remuta.wav,right,,ADV_EN_20,2023-08-30_12h13.47.570,auditory_ldt_2023_esp_list1,2021.1.1,Win32,59.8372427,,,0,1,0.4677,0,153,153,153,1,0,,
,,,,,,,,,,,,arrastrar,visuospatial,NA,NA,yes,NA,NA,NA,word,"1,2and3",arrastrar.wav,left,,ADV_EN_20,2023-08-30_12h13.47.570,auditory_ldt_2023_esp_list1,2021.1.1,Win32,59.8372427,,,1,1,0.6532,0,154,154,154,1,1,,
,,,,,,,,,,,,apasfrar,visuospatial,NA,NA,NA,NA,NA,NA,pseudoword,"1,2and3",apasfrar.wav,right,,ADV_EN_20,2023-08-30_12h13.47.570,auditory_ldt_2023_esp_list1,2021.1.1,Win32,59.8372427,,,0,1,0.8341,0,155,155,155,1,0,,
,,,,,,,,,,,,pindias,InflectionalVerbs,NA,NA,NA,NA,NA,NA,pseudoword,1,pindias.wav,right,,ADV_EN_20,2023-08-30_12h13.47.570,auditory_ldt_2023_esp_list1,2021.1.1,Win32,59.8372427,,,0,1,0.9779,0,156,156,156,1,0,,
,,,,,,,,,,,,nisiais,InflectionalVerbs,NA,NA,NA,NA,NA,NA,pseudoword,1,nisiais.wav,right,,ADV_EN_20,2023-08-30_12h13.47.570,auditory_ldt_2023_esp_list1,2021.1.1,Win32,59.8372427,,,0,1,1.3544,0,157,157,157,1,0,,
,,,,,,,,,,,,pediais,InflectionalVerbs,NA,NA,NA,4,High,50.1,word,1,pediais.wav,left,,ADV_EN_20,2023-08-30_12h13.47.570,auditory_ldt_2023_esp_list1,2021.1.1,Win32,59.8372427,,,1,1,0.6243,0,158,158,158,1,1,,
,,,,,,,,,,,,carrito,morfosyllable,diferente,NA,NA,NA,NA,NA,word,"1,2and3",carrito.wav,left,,ADV_EN_20,2023-08-30_12h13.47.570,auditory_ldt_2023_esp_list1,2021.1.1,Win32,59.8372427,,,1,1,0.3431,0,159,159,159,1,1,,
,,,,,,,,,,,,tosiais,InflectionalVerbs,NA,NA,NA,4,Low,1.42,word,1,tosiais.wav,left,,ADV_EN_20,2023-08-30_12h13.47.570,auditory_ldt_2023_esp_list1,2021.1.1,Win32,59.8372427,,,1,1,0.5784,0,160,160,160,1,1,,
,,,,,,,,,,,,flirsuta,morfosyllable,NA,NA,NA,NA,NA,NA,pseudoword,"1,2and3",flirsuta.wav,right,,ADV_EN_20,2023-08-30_12h13.47.570,auditory_ldt_2023_esp_list1,2021.1.1,Win32,59.8372427,,,0,1,0.6117,0,161,161,161,1,0,,
,,,,,,,,,,,,cedia,InflectionalVerbs,NA,NA,NA,2,Low,13.68,word,1,cedia.wav,left,,ADV_EN_20,2023-08-30_12h13.47.570,auditory_ldt_2023_esp_list1,2021.1.1,Win32,59.8372427,,,1,1,1.2546,0,162,162,162,1,1,,
,,,,,,,,,,,,surrias,InflectionalVerbs,NA,NA,NA,NA,NA,NA,pseudoword,1,surrias.wav,right,,ADV_EN_20,2023-08-30_12h13.47.570,auditory_ldt_2023_esp_list1,2021.1.1,Win32,59.8372427,,,0,1,0.7097,0,163,163,163,1,0,,
,,,,,,,,,,,,ramita,morfosyllable,diferente,NA,NA,NA,NA,NA,word,"1,2and3",ramita.wav,left,,ADV_EN_20,2023-08-30_12h13.47.570,auditory_ldt_2023_esp_list1,2021.1.1,Win32,59.8372427,,,1,1,0.4506,0,164,164,164,1,1,,
,,,,,,,,,,,,puartuto,morfosyllable,NA,NA,NA,NA,NA,NA,pseudoword,"1,2and3",puartuto.wav,right,,ADV_EN_20,2023-08-30_12h13.47.570,auditory_ldt_2023_esp_list1,2021.1.1,Win32,59.8372427,,,0,1,0.7031,0,165,165,165,1,0,,
,,,,,,,,,,,,aclarar,visuospatial,NA,NA,no,NA,NA,NA,word,"1,2and3",aclarar.wav,left,,ADV_EN_20,2023-08-30_12h13.47.570,auditory_ldt_2023_esp_list1,2021.1.1,Win32,59.8372427,,,1,1,0.7676,0,166,166,166,1,1,,
,,,,,,,,,,,,ratito,morfosyllable,diferente,NA,NA,NA,NA,NA,word,"1,2and3",ratito.wav,left,,ADV_EN_20,2023-08-30_12h13.47.570,auditory_ldt_2023_esp_list1,2021.1.1,Win32,59.8372427,,,1,1,0.6005,0,167,167,167,1,1,,
,,,,,,,,,,,,afemar,visuospatial,NA,NA,NA,NA,NA,NA,pseudoword,"1,2and3",afemar.wav,right,,ADV_EN_20,2023-08-30_12h13.47.570,auditory_ldt_2023_esp_list1,2021.1.1,Win32,59.8372427,,,0,1,0.601,0,168,168,168,1,0,,
,,,,,,,,,,,,gelcito,morfosyllable,coincidente,3,NA,NA,NA,NA,word,"1,2and3",gelcito.wav,left,,ADV_EN_20,2023-08-30_12h13.47.570,auditory_ldt_2023_esp_list1,2021.1.1,Win32,59.8372427,,,0,0,0.6842,0,169,169,169,1,1,,
,,,,,,,,,,,,,,,,,,,,,,,,,ADV_EN_20,2023-08-30_12h13.47.570,auditory_ldt_2023_esp_list1,2021.1.1,Win32,59.8372427,,,,,,,,,,,,space,1.0769
