key_resp.keys,key_resp.rt,key_resp_2.keys,key_resp_2.rt,key_resp_3.keys,key_resp_3.corr,key_resp_3.rt,trials.thisRepN,trials.thisTrialN,trials.thisN,trials.thisIndex,trials.ran,Word,Experiment,root_syllable,phonemes_firstsyllable,spatial_verb,Number_of_morphemes,lexical_freq,lex_freq_lexesp,Item_Type,list,wav,CorrResp,CorrRespNumb,participant,date,expName,psychopyVersion,OS,frameRate,key_resp_4.keys,key_resp_4.rt,key_resp_6.keys,key_resp_6.corr,key_resp_6.rt,trials_2.thisRepN,trials_2.thisTrialN,trials_2.thisN,trials_2.thisIndex,trials_2.ran,CorRespNumb,key_resp_5.keys,key_resp_5.rt
space,1.4453,y,2.9437,0,0,40.625,0,0,0,0,1,casita,practica,NA,NA,NA,NA,NA,NA,NA,NA,casita.wav,left,1,inc_j_beg_04,2023-07-20_09h22.31.002,auditory_ldt_2023_esp_list1,2021.1.1,Win32,60.0024001,,,,,,,,,,,,,
,,,,1,1,0.5267,0,1,1,1,1,acabar,practica,NA,NA,NA,NA,NA,NA,NA,NA,acabar.wav,left,1,inc_j_beg_04,2023-07-20_09h22.31.002,auditory_ldt_2023_esp_list1,2021.1.1,Win32,60.0024001,,,,,,,,,,,,,
,,,,1,0,0.4461,0,2,2,2,1,arujar,practica,NA,NA,NA,NA,NA,NA,NA,NA,arujar.wav,right,0,inc_j_beg_04,2023-07-20_09h22.31.002,auditory_ldt_2023_esp_list1,2021.1.1,Win32,60.0024001,,,,,,,,,,,,,
,,,,0,0,1.2444,0,3,3,3,1,gatito,practica,NA,NA,NA,NA,NA,NA,NA,NA,gatito.wav,left,1,inc_j_beg_04,2023-07-20_09h22.31.002,auditory_ldt_2023_esp_list1,2021.1.1,Win32,60.0024001,,,,,,,,,,,,,
,,,,0,1,0.1604,0,4,4,4,1,deslopar,practica,NA,NA,NA,NA,NA,NA,NA,NA,deslopar.wav,right,0,inc_j_beg_04,2023-07-20_09h22.31.002,auditory_ldt_2023_esp_list1,2021.1.1,Win32,60.0024001,,,,,,,,,,,,,
,,,,1,0,10.9355,0,5,5,5,1,masuto,practica,NA,NA,NA,NA,NA,NA,NA,NA,masuto.wav,right,0,inc_j_beg_04,2023-07-20_09h22.31.002,auditory_ldt_2023_esp_list1,2021.1.1,Win32,60.0024001,,,,,,,,,,,,,
,,,,,,,,,,,,solcito,morfosyllable,coincidente,3,NA,NA,NA,NA,word,"1,2and3",solcito.wav,left,,inc_j_beg_04,2023-07-20_09h22.31.002,auditory_ldt_2023_esp_list1,2021.1.1,Win32,60.0024001,k,7.6618,0,0,2.2427,0,0,0,0,1,1,,
,,,,,,,,,,,,timpiais,InflectionalVerbs,NA,NA,NA,NA,NA,NA,pseudoword,1,timpiais.wav,right,,inc_j_beg_04,2023-07-20_09h22.31.002,auditory_ldt_2023_esp_list1,2021.1.1,Win32,60.0024001,,,1,0,0.1919,0,1,1,1,1,0,,
,,,,,,,,,,,,anotar,visuospatial,NA,NA,no,NA,NA,NA,word,"1,2and3",anotar.wav,left,,inc_j_beg_04,2023-07-20_09h22.31.002,auditory_ldt_2023_esp_list1,2021.1.1,Win32,60.0024001,,,1,1,0.714,0,2,2,2,1,1,,
,,,,,,,,,,,,clobsuto,morfosyllable,NA,NA,NA,NA,NA,NA,pseudoword,"1,2and3",clobsuto.wav,right,,inc_j_beg_04,2023-07-20_09h22.31.002,auditory_ldt_2023_esp_list1,2021.1.1,Win32,60.0024001,,,1,0,0.1105,0,3,3,3,1,0,,
,,,,,,,,,,,,firrias,InflectionalVerbs,NA,NA,NA,NA,NA,NA,pseudoword,1,firrias.wav,right,,inc_j_beg_04,2023-07-20_09h22.31.002,auditory_ldt_2023_esp_list1,2021.1.1,Win32,60.0024001,,,1,0,0.3927,0,4,4,4,1,0,,
,,,,,,,,,,,,acortar,visuospatial,NA,NA,yes,NA,NA,NA,word,"1,2and3",acortar.wav,left,,inc_j_beg_04,2023-07-20_09h22.31.002,auditory_ldt_2023_esp_list1,2021.1.1,Win32,60.0024001,,,0,0,0.4597,0,5,5,5,1,1,,
,,,,,,,,,,,,alejar,visuospatial,NA,NA,yes,NA,NA,NA,word,"1,2and3",alejar.wav,left,,inc_j_beg_04,2023-07-20_09h22.31.002,auditory_ldt_2023_esp_list1,2021.1.1,Win32,60.0024001,,,1,1,0.1589,0,6,6,6,1,1,,
,,,,,,,,,,,,mielcita,morfosyllable,coincidente,4,NA,NA,NA,NA,word,"1,2and3",mielcita.wav,left,,inc_j_beg_04,2023-07-20_09h22.31.002,auditory_ldt_2023_esp_list1,2021.1.1,Win32,60.0024001,,,0,0,0.0243,0,7,7,7,1,1,,
,,,,,,,,,,,,girtias,InflectionalVerbs,NA,NA,NA,NA,NA,NA,pseudoword,1,girtias.wav,right,,inc_j_beg_04,2023-07-20_09h22.31.002,auditory_ldt_2023_esp_list1,2021.1.1,Win32,60.0024001,,,0,1,0.4464,0,8,8,8,1,0,,
,,,,,,,,,,,,descrefiar,visuospatial,NA,NA,NA,NA,NA,NA,pseudoword,"1,2and3",descrefiar.wav,right,,inc_j_beg_04,2023-07-20_09h22.31.002,auditory_ldt_2023_esp_list1,2021.1.1,Win32,60.0024001,,,1,0,0.0768,0,9,9,9,1,0,,
,,,,,,,,,,,,juancito,morfosyllable,coincidente,4,NA,NA,NA,NA,word,"1,2and3",juancito.wav,left,,inc_j_beg_04,2023-07-20_09h22.31.002,auditory_ldt_2023_esp_list1,2021.1.1,Win32,60.0024001,,,1,1,0.06,0,10,10,10,1,1,,
,,,,,,,,,,,,afrontar,visuospatial,NA,NA,no,NA,NA,NA,word,"1,2and3",afrontar.wav,left,,inc_j_beg_04,2023-07-20_09h22.31.002,auditory_ldt_2023_esp_list1,2021.1.1,Win32,60.0024001,,,0,0,0.2334,0,11,11,11,1,1,,
,,,,,,,,,,,,selsuto,morfosyllable,NA,NA,NA,NA,NA,NA,pseudoword,"1,2and3",selsuto.wav,right,,inc_j_beg_04,2023-07-20_09h22.31.002,auditory_ldt_2023_esp_list1,2021.1.1,Win32,60.0024001,,,1,0,0.3294,0,12,12,12,1,0,,
,,,,,,,,,,,,goias,InflectionalVerbs,NA,NA,NA,NA,NA,NA,pseudoword,1,goias.wav,right,,inc_j_beg_04,2023-07-20_09h22.31.002,auditory_ldt_2023_esp_list1,2021.1.1,Win32,60.0024001,,,0,1,0.2434,0,13,13,13,1,0,,
,,,,,,,,,,,,fundias,InflectionalVerbs,NA,NA,NA,3,Low,1.78,word,1,fundias.wav,left,,inc_j_beg_04,2023-07-20_09h22.31.002,auditory_ldt_2023_esp_list1,2021.1.1,Win32,60.0024001,,,0,0,0.011,0,14,14,14,1,1,,
,,,,,,,,,,,,galsuto,morfosyllable,NA,NA,NA,NA,NA,NA,pseudoword,"1,2and3",galsuto.wav,right,,inc_j_beg_04,2023-07-20_09h22.31.002,auditory_ldt_2023_esp_list1,2021.1.1,Win32,60.0024001,,,0,1,0.0272,0,15,15,15,1,0,,
,,,,,,,,,,,,acallar,visuospatial,NA,NA,no,NA,NA,NA,word,"1,2and3",acallar.wav,left,,inc_j_beg_04,2023-07-20_09h22.31.002,auditory_ldt_2023_esp_list1,2021.1.1,Win32,60.0024001,,,1,1,0.4809,0,16,16,16,1,1,,
,,,,,,,,,,,,pielcita,morfosyllable,coincidente,4,NA,NA,NA,NA,word,"1,2and3",pielcita.wav,left,,inc_j_beg_04,2023-07-20_09h22.31.002,auditory_ldt_2023_esp_list1,2021.1.1,Win32,60.0024001,,,1,1,0.0089,0,17,17,17,1,1,,
,,,,,,,,,,,,apartar,visuospatial,NA,NA,yes,NA,NA,NA,word,"1,2and3",apartar.wav,left,,inc_j_beg_04,2023-07-20_09h22.31.002,auditory_ldt_2023_esp_list1,2021.1.1,Win32,60.0024001,,,0,0,0.3255,0,18,18,18,1,1,,
,,,,,,,,,,,,yacia,InflectionalVerbs,NA,NA,NA,2,Low,1.42,word,1,yacia.wav,left,,inc_j_beg_04,2023-07-20_09h22.31.002,auditory_ldt_2023_esp_list1,2021.1.1,Win32,60.0024001,,,0,0,0.3937,0,19,19,19,1,1,,
,,,,,,,,,,,,vocias,InflectionalVerbs,NA,NA,NA,NA,NA,NA,pseudoword,1,vocias.wav,right,,inc_j_beg_04,2023-07-20_09h22.31.002,auditory_ldt_2023_esp_list1,2021.1.1,Win32,60.0024001,,,0,1,7.5127,0,20,20,20,1,0,,
,,,,,,,,,,,,seguiais,InflectionalVerbs,NA,NA,NA,4,High,144.42,word,1,seguiais.wav,left,,inc_j_beg_04,2023-07-20_09h22.31.002,auditory_ldt_2023_esp_list1,2021.1.1,Win32,60.0024001,,,1,1,0.9288,0,21,21,21,1,1,,
,,,,,,,,,,,,curdia,InflectionalVerbs,NA,NA,NA,NA,NA,NA,pseudoword,1,curdia.wav,right,,inc_j_beg_04,2023-07-20_09h22.31.002,auditory_ldt_2023_esp_list1,2021.1.1,Win32,60.0024001,,,1,0,0.4751,0,22,22,22,1,0,,
,,,,,,,,,,,,fucia,InflectionalVerbs,NA,NA,NA,NA,NA,NA,pseudoword,1,fucia.wav,right,,inc_j_beg_04,2023-07-20_09h22.31.002,auditory_ldt_2023_esp_list1,2021.1.1,Win32,60.0024001,,,1,0,0.2097,0,23,23,23,1,0,,
,,,,,,,,,,,,acercar,visuospatial,NA,NA,yes,NA,NA,NA,word,"1,2and3",acercar.wav,left,,inc_j_beg_04,2023-07-20_09h22.31.002,auditory_ldt_2023_esp_list1,2021.1.1,Win32,60.0024001,,,0,0,0.3129,0,24,24,24,1,1,,
,,,,,,,,,,,,abria,InflectionalVerbs,NA,NA,NA,2,High,48.85,word,1,abria.wav,left,,inc_j_beg_04,2023-07-20_09h22.31.002,auditory_ldt_2023_esp_list1,2021.1.1,Win32,60.0024001,,,1,1,0.1598,0,25,25,25,1,1,,
,,,,,,,,,,,,borsuto,morfosyllable,NA,NA,NA,NA,NA,NA,pseudoword,"1,2and3",borsuto.wav,right,,inc_j_beg_04,2023-07-20_09h22.31.002,auditory_ldt_2023_esp_list1,2021.1.1,Win32,60.0024001,,,0,1,0.264,0,26,26,26,1,0,,
,,,,,,,,,,,,poesuto,morfosyllable,NA,NA,NA,NA,NA,NA,pseudoword,"1,2and3",poesuto.wav,right,,inc_j_beg_04,2023-07-20_09h22.31.002,auditory_ldt_2023_esp_list1,2021.1.1,Win32,60.0024001,,,0,1,0.1834,0,27,27,27,1,0,,
,,,,,,,,,,,,nulvias,InflectionalVerbs,NA,NA,NA,NA,NA,NA,pseudoword,1,nulvias.wav,right,,inc_j_beg_04,2023-07-20_09h22.31.002,auditory_ldt_2023_esp_list1,2021.1.1,Win32,60.0024001,,,1,0,0.11,0,28,28,28,1,0,,
,,,,,,,,,,,,acertar,visuospatial,NA,NA,no,NA,NA,NA,word,"1,2and3",acertar.wav,left,,inc_j_beg_04,2023-07-20_09h22.31.002,auditory_ldt_2023_esp_list1,2021.1.1,Win32,60.0024001,,,0,0,0.2464,0,29,29,29,1,1,,
,,,,,,,,,,,,pancito,morfosyllable,coincidente,3,NA,NA,NA,NA,word,"1,2and3",pancito.wav,left,,inc_j_beg_04,2023-07-20_09h22.31.002,auditory_ldt_2023_esp_list1,2021.1.1,Win32,60.0024001,,,0,0,8.4991,0,30,30,30,1,1,,
,,,,,,,,,,,,amanar,visuospatial,NA,NA,NA,NA,NA,NA,pseudoword,"1,2and3",amanar.wav,right,,inc_j_beg_04,2023-07-20_09h22.31.002,auditory_ldt_2023_esp_list1,2021.1.1,Win32,60.0024001,,,1,0,0.2591,0,31,31,31,1,0,,
,,,,,,,,,,,,camita,morfosyllable,diferente,NA,NA,NA,NA,NA,word,"1,2and3",camita.wav,left,,inc_j_beg_04,2023-07-20_09h22.31.002,auditory_ldt_2023_esp_list1,2021.1.1,Win32,60.0024001,,,0,0,7.0615,0,32,32,32,1,1,,
,,,,,,,,,,,,heriais,InflectionalVerbs,NA,NA,NA,4,Low,5.15,word,1,heriais.wav,left,,inc_j_beg_04,2023-07-20_09h22.31.002,auditory_ldt_2023_esp_list1,2021.1.1,Win32,60.0024001,,,1,1,0.0648,0,33,33,33,1,1,,
,,,,,,,,,,,,creiais,InflectionalVerbs,NA,NA,NA,4,High,62.35,word,1,creiais.wav,left,,inc_j_beg_04,2023-07-20_09h22.31.002,auditory_ldt_2023_esp_list1,2021.1.1,Win32,60.0024001,,,0,0,1.0641,0,34,34,34,1,1,,
,,,,,,,,,,,,teruto,morfosyllable,NA,NA,NA,NA,NA,NA,pseudoword,"1,2and3",teruto.wav,right,,inc_j_beg_04,2023-07-20_09h22.31.002,auditory_ldt_2023_esp_list1,2021.1.1,Win32,60.0024001,,,0,1,0.359,0,35,35,35,1,0,,
,,,,,,,,,,,,plancito,morfosyllable,coincidente,4,NA,NA,NA,NA,word,"1,2and3",plancito.wav,left,,inc_j_beg_04,2023-07-20_09h22.31.002,auditory_ldt_2023_esp_list1,2021.1.1,Win32,60.0024001,,,0,0,0.3584,0,36,36,36,1,1,,
,,,,,,,,,,,,rompiais,InflectionalVerbs,NA,NA,NA,4,High,35.35,word,1,rompiais.wav,left,,inc_j_beg_04,2023-07-20_09h22.31.002,auditory_ldt_2023_esp_list1,2021.1.1,Win32,60.0024001,,,0,0,0.3443,0,37,37,37,1,1,,
,,,,,,,,,,,,batias,InflectionalVerbs,NA,NA,NA,3,Low,6.4,word,1,batias.wav,left,,inc_j_beg_04,2023-07-20_09h22.31.002,auditory_ldt_2023_esp_list1,2021.1.1,Win32,60.0024001,,,1,1,0.3428,0,38,38,38,1,1,,
,,,,,,,,,,,,saliais,InflectionalVerbs,NA,NA,NA,4,High,169.12,word,1,saliais.wav,left,,inc_j_beg_04,2023-07-20_09h22.31.002,auditory_ldt_2023_esp_list1,2021.1.1,Win32,60.0024001,,,1,1,0.258,0,39,39,39,1,1,,
,,,,,,,,,,,,sopita,morfosyllable,diferente,NA,NA,NA,NA,NA,word,"1,2and3",sopita.wav,left,,inc_j_beg_04,2023-07-20_09h22.31.002,auditory_ldt_2023_esp_list1,2021.1.1,Win32,60.0024001,,,1,1,0.0806,0,40,40,40,1,1,,
,,,,,,,,,,,,pojias,InflectionalVerbs,NA,NA,NA,NA,NA,NA,pseudoword,1,pojias.wav,right,,inc_j_beg_04,2023-07-20_09h22.31.002,auditory_ldt_2023_esp_list1,2021.1.1,Win32,60.0024001,,,0,1,0.1099,0,41,41,41,1,0,,
,,,,,,,,,,,,aplirar,visuospatial,NA,NA,NA,NA,NA,NA,pseudoword,"1,2and3",aplirar.wav,right,,inc_j_beg_04,2023-07-20_09h22.31.002,auditory_ldt_2023_esp_list1,2021.1.1,Win32,60.0024001,,,0,1,0.0115,0,42,42,42,1,0,,
,,,,,,,,,,,,piecito,morfosyllable,coincidente,3,NA,NA,NA,NA,word,"1,2and3",piecito.wav,left,,inc_j_beg_04,2023-07-20_09h22.31.002,auditory_ldt_2023_esp_list1,2021.1.1,Win32,60.0024001,,,0,0,0.1632,0,43,43,43,1,1,,
,,,,,,,,,,,,litruto,morfosyllable,NA,NA,NA,NA,NA,NA,pseudoword,"1,2and3",litruto.wav,right,,inc_j_beg_04,2023-07-20_09h22.31.002,auditory_ldt_2023_esp_list1,2021.1.1,Win32,60.0024001,,,1,0,0.0261,0,44,44,44,1,0,,
,,,,,,,,,,,,conito,morfosyllable,diferente,NA,NA,NA,NA,NA,word,"1,2and3",conito.wav,left,,inc_j_beg_04,2023-07-20_09h22.31.002,auditory_ldt_2023_esp_list1,2021.1.1,Win32,60.0024001,,,0,0,0.0265,0,45,45,45,1,1,,
,,,,,,,,,,,,uavuto,morfosyllable,NA,NA,NA,NA,NA,NA,pseudoword,"1,2and3",uavuto.wav,right,,inc_j_beg_04,2023-07-20_09h22.31.002,auditory_ldt_2023_esp_list1,2021.1.1,Win32,60.0024001,,,1,0,0.2787,0,46,46,46,1,0,,
,,,,,,,,,,,,aberfar,visuospatial,NA,NA,NA,NA,NA,NA,pseudoword,"1,2and3",aberfar.wav,right,,inc_j_beg_04,2023-07-20_09h22.31.002,auditory_ldt_2023_esp_list1,2021.1.1,Win32,60.0024001,,,0,1,0.4289,0,47,47,47,1,0,,
,,,,,,,,,,,,dedito,morfosyllable,diferente,NA,NA,NA,NA,NA,word,"1,2and3",dedito.wav,left,,inc_j_beg_04,2023-07-20_09h22.31.002,auditory_ldt_2023_esp_list1,2021.1.1,Win32,60.0024001,,,0,0,0.0592,0,48,48,48,1,1,,
,,,,,,,,,,,,secliais,InflectionalVerbs,NA,NA,NA,NA,NA,NA,pseudoword,1,secliais.wav,right,,inc_j_beg_04,2023-07-20_09h22.31.002,auditory_ldt_2023_esp_list1,2021.1.1,Win32,60.0024001,,,0,1,0.132,0,49,49,49,1,0,,
,,,,,,,,,,,,venias,InflectionalVerbs,NA,NA,NA,3,High,50.81,word,1,venias.wav,left,,inc_j_beg_04,2023-07-20_09h22.31.002,auditory_ldt_2023_esp_list1,2021.1.1,Win32,60.0024001,,,1,1,0.1477,0,50,50,50,1,1,,
,,,,,,,,,,,,perdia,InflectionalVerbs,NA,NA,NA,2,High,78.87,word,1,perdia.wav,left,,inc_j_beg_04,2023-07-20_09h22.31.002,auditory_ldt_2023_esp_list1,2021.1.1,Win32,60.0024001,,,0,0,0.159,0,51,51,51,1,1,,
,,,,,,,,,,,,asuibar,visuospatial,NA,NA,NA,NA,NA,NA,pseudoword,"1,2and3",asuibar.wav,right,,inc_j_beg_04,2023-07-20_09h22.31.002,auditory_ldt_2023_esp_list1,2021.1.1,Win32,60.0024001,,,0,1,0.1137,0,52,52,52,1,0,,
,,,,,,,,,,,,anular,visuospatial,NA,NA,no,NA,NA,NA,word,"1,2and3",anular.wav,left,,inc_j_beg_04,2023-07-20_09h22.31.002,auditory_ldt_2023_esp_list1,2021.1.1,Win32,60.0024001,,,0,0,0.0309,0,53,53,53,1,1,,
,,,,,,,,,,,,gucias,InflectionalVerbs,NA,NA,NA,NA,NA,NA,pseudoword,1,gucias.wav,right,,inc_j_beg_04,2023-07-20_09h22.31.002,auditory_ldt_2023_esp_list1,2021.1.1,Win32,60.0024001,,,0,1,0.0112,0,54,54,54,1,0,,
,,,,,,,,,,,,didia,InflectionalVerbs,NA,NA,NA,NA,NA,NA,pseudoword,1,didia.wav,right,,inc_j_beg_04,2023-07-20_09h22.31.002,auditory_ldt_2023_esp_list1,2021.1.1,Win32,60.0024001,,,0,1,0.0089,0,55,55,55,1,0,,
,,,,,,,,,,,,corrias,InflectionalVerbs,NA,NA,NA,3,High,51.87,word,1,corrias.wav,left,,inc_j_beg_04,2023-07-20_09h22.31.002,auditory_ldt_2023_esp_list1,2021.1.1,Win32,60.0024001,,,0,0,0.1771,0,56,56,56,1,1,,
,,,,,,,,,,,,descansar,visuospatial,NA,NA,no,NA,NA,NA,word,"1,2and3",descansar.wav,left,,inc_j_beg_04,2023-07-20_09h22.31.002,auditory_ldt_2023_esp_list1,2021.1.1,Win32,60.0024001,,,1,1,0.2612,0,57,57,57,1,1,,
,,,,,,,,,,,,vasito,morfosyllable,diferente,NA,NA,NA,NA,NA,word,"1,2and3",vasito.wav,left,,inc_j_beg_04,2023-07-20_09h22.31.002,auditory_ldt_2023_esp_list1,2021.1.1,Win32,60.0024001,,,1,1,0.0421,0,58,58,58,1,1,,
,,,,,,,,,,,,apirdar,visuospatial,NA,NA,NA,NA,NA,NA,pseudoword,"1,2and3",apirdar.wav,right,,inc_j_beg_04,2023-07-20_09h22.31.002,auditory_ldt_2023_esp_list1,2021.1.1,Win32,60.0024001,,,1,0,0.0095,0,59,59,59,1,0,,
,,,,,,,,,,,,plensuto,morfosyllable,NA,NA,NA,NA,NA,NA,pseudoword,"1,2and3",plensuto.wav,right,,inc_j_beg_04,2023-07-20_09h22.31.002,auditory_ldt_2023_esp_list1,2021.1.1,Win32,60.0024001,,,1,0,0.0093,0,60,60,60,1,0,,
,,,,,,,,,,,,lamiais,InflectionalVerbs,NA,NA,NA,4,Low,1.07,word,1,lamiais.wav,left,,inc_j_beg_04,2023-07-20_09h22.31.002,auditory_ldt_2023_esp_list1,2021.1.1,Win32,60.0024001,,,1,1,0.1757,0,61,61,61,1,1,,
,,,,,,,,,,,,descungiar,visuospatial,NA,NA,NA,NA,NA,NA,pseudoword,"1,2and3",descungiar.wav,right,,inc_j_beg_04,2023-07-20_09h22.31.002,auditory_ldt_2023_esp_list1,2021.1.1,Win32,60.0024001,,,0,1,0.011,0,62,62,62,1,0,,
,,,,,,,,,,,,julsuto,morfosyllable,NA,NA,NA,NA,NA,NA,pseudoword,"1,2and3",julsuto.wav,right,,inc_j_beg_04,2023-07-20_09h22.31.002,auditory_ldt_2023_esp_list1,2021.1.1,Win32,60.0024001,,,1,0,0.1091,0,63,63,63,1,0,,
,,,,,,,,,,,,desfantar,visuospatial,NA,NA,NA,NA,NA,NA,pseudoword,"1,2and3",desfantar.wav,right,,inc_j_beg_04,2023-07-20_09h22.31.002,auditory_ldt_2023_esp_list1,2021.1.1,Win32,60.0024001,,,1,0,0.0093,0,64,64,64,1,0,,
,,,,,,,,,,,,coliais,InflectionalVerbs,NA,NA,NA,NA,NA,NA,pseudoword,1,coliais.wav,right,,inc_j_beg_04,2023-07-20_09h22.31.002,auditory_ldt_2023_esp_list1,2021.1.1,Win32,60.0024001,,,1,0,0.0087,0,65,65,65,1,0,,
,,,,,,,,,,,,lomito,morfosyllable,diferente,NA,NA,NA,NA,NA,word,"1,2and3",lomito.wav,left,,inc_j_beg_04,2023-07-20_09h22.31.002,auditory_ldt_2023_esp_list1,2021.1.1,Win32,60.0024001,,,1,1,0.0436,0,66,66,66,1,1,,
,,,,,,,,,,,,desplazar,visuospatial,NA,NA,yes,NA,NA,NA,word,"1,2and3",desplazar.wav,left,,inc_j_beg_04,2023-07-20_09h22.31.002,auditory_ldt_2023_esp_list1,2021.1.1,Win32,60.0024001,,,1,1,0.009,0,67,67,67,1,1,,
,,,,,,,,,,,,desbemar,visuospatial,NA,NA,NA,NA,NA,NA,pseudoword,"1,2and3",desbemar.wav,right,,inc_j_beg_04,2023-07-20_09h22.31.002,auditory_ldt_2023_esp_list1,2021.1.1,Win32,60.0024001,,,1,0,0.0418,0,68,68,68,1,0,,
,,,,,,,,,,,,traia,InflectionalVerbs,NA,NA,NA,2,High,17.41,word,1,traia.wav,left,,inc_j_beg_04,2023-07-20_09h22.31.002,auditory_ldt_2023_esp_list1,2021.1.1,Win32,60.0024001,,,0,0,0.0269,0,69,69,69,1,1,,
,,,,,,,,,,,,destrozar,visuospatial,NA,NA,yes,NA,NA,NA,word,"1,2and3",destrozar.wav,left,,inc_j_beg_04,2023-07-20_09h22.31.002,auditory_ldt_2023_esp_list1,2021.1.1,Win32,60.0024001,,,1,1,0.0097,0,70,70,70,1,1,,
,,,,,,,,,,,,tejias,InflectionalVerbs,NA,NA,NA,3,Low,4.26,word,1,tejias.wav,left,,inc_j_beg_04,2023-07-20_09h22.31.002,auditory_ldt_2023_esp_list1,2021.1.1,Win32,60.0024001,,,1,1,4.0177,0,71,71,71,1,1,,
,,,,,,,,,,,,puertito,morfosyllable,diferente,NA,NA,NA,NA,NA,word,"1,2and3",puertito.wav,left,,inc_j_beg_04,2023-07-20_09h22.31.002,auditory_ldt_2023_esp_list1,2021.1.1,Win32,60.0024001,,,1,1,0.0589,0,72,72,72,1,1,,
,,,,,,,,,,,,sondia,InflectionalVerbs,NA,NA,NA,NA,NA,NA,pseudoword,1,sondia.wav,right,,inc_j_beg_04,2023-07-20_09h22.31.002,auditory_ldt_2023_esp_list1,2021.1.1,Win32,60.0024001,,,0,1,0.8793,0,73,73,73,1,0,,
,,,,,,,,,,,,librito,morfosyllable,diferente,NA,NA,NA,NA,NA,word,"1,2and3",librito.wav,left,,inc_j_beg_04,2023-07-20_09h22.31.002,auditory_ldt_2023_esp_list1,2021.1.1,Win32,60.0024001,,,0,0,0.126,0,74,74,74,1,1,,
,,,,,,,,,,,,agartar,visuospatial,NA,NA,NA,NA,NA,NA,pseudoword,"1,2and3",agartar.wav,right,,inc_j_beg_04,2023-07-20_09h22.31.002,auditory_ldt_2023_esp_list1,2021.1.1,Win32,60.0024001,,,0,1,0.0965,0,75,75,75,1,0,,
,,,,,,,,,,,,vertias,InflectionalVerbs,NA,NA,NA,3,Low,1.24,word,1,vertias.wav,left,,inc_j_beg_04,2023-07-20_09h22.31.002,auditory_ldt_2023_esp_list1,2021.1.1,Win32,60.0024001,,,0,0,0.0134,0,76,76,76,1,1,,
,,,,,,,,,,,,ajanar,visuospatial,NA,NA,NA,NA,NA,NA,pseudoword,"1,2and3",ajanar.wav,right,,inc_j_beg_04,2023-07-20_09h22.31.002,auditory_ldt_2023_esp_list1,2021.1.1,Win32,60.0024001,,,1,0,0.1269,0,77,77,77,1,0,,
,,,,,,,,,,,,besito,morfosyllable,diferente,NA,NA,NA,NA,NA,word,"1,2and3",besito.wav,left,,inc_j_beg_04,2023-07-20_09h22.31.002,auditory_ldt_2023_esp_list1,2021.1.1,Win32,60.0024001,,,1,1,0.0964,0,78,78,78,1,1,,
,,,,,,,,,,,,arentar,visuospatial,NA,NA,NA,NA,NA,NA,pseudoword,"1,2and3",arentar.wav,right,,inc_j_beg_04,2023-07-20_09h22.31.002,auditory_ldt_2023_esp_list1,2021.1.1,Win32,60.0024001,,,0,1,0.094,0,79,79,79,1,0,,
,,,,,,,,,,,,fegia,InflectionalVerbs,NA,NA,NA,NA,NA,NA,pseudoword,1,fegia.wav,right,,inc_j_beg_04,2023-07-20_09h22.31.002,auditory_ldt_2023_esp_list1,2021.1.1,Win32,60.0024001,,,1,0,0.4098,0,80,80,80,1,0,,
,,,,,,,,,,,,torcia,InflectionalVerbs,NA,NA,NA,2,Low,1.24,word,1,torcia.wav,left,,inc_j_beg_04,2023-07-20_09h22.31.002,auditory_ldt_2023_esp_list1,2021.1.1,Win32,60.0024001,,,1,1,0.3433,0,81,81,81,1,1,,
,,,,,,,,,,,,moelsuta,morfosyllable,NA,NA,NA,NA,NA,NA,pseudoword,"1,2and3",moelsuta.wav,right,,inc_j_beg_04,2023-07-20_09h22.31.002,auditory_ldt_2023_esp_list1,2021.1.1,Win32,60.0024001,,,0,1,0.3121,0,82,82,82,1,0,,
,,,,,,,,,,,,vesuto,morfosyllable,NA,NA,NA,NA,NA,NA,pseudoword,"1,2and3",vesuto.wav,right,,inc_j_beg_04,2023-07-20_09h22.31.002,auditory_ldt_2023_esp_list1,2021.1.1,Win32,60.0024001,,,0,1,0.2921,0,83,83,83,1,0,,
,,,,,,,,,,,,piolsuta,morfosyllable,NA,NA,NA,NA,NA,NA,pseudoword,"1,2and3",piolsuta.wav,right,,inc_j_beg_04,2023-07-20_09h22.31.002,auditory_ldt_2023_esp_list1,2021.1.1,Win32,60.0024001,,,1,0,0.027,0,84,84,84,1,0,,
,,,,,,,,,,,,barrias,InflectionalVerbs,NA,NA,NA,3,Low,3.2,word,1,barrias.wav,left,,inc_j_beg_04,2023-07-20_09h22.31.002,auditory_ldt_2023_esp_list1,2021.1.1,Win32,60.0024001,,,1,1,0.159,0,85,85,85,1,1,,
,,,,,,,,,,,,agromar,visuospatial,NA,NA,NA,NA,NA,NA,pseudoword,"1,2and3",agromar.wav,right,,inc_j_beg_04,2023-07-20_09h22.31.002,auditory_ldt_2023_esp_list1,2021.1.1,Win32,60.0024001,,,0,1,0.1267,0,86,86,86,1,0,,
,,,,,,,,,,,,flancito,morfosyllable,coincidente,4,NA,NA,NA,NA,word,"1,2and3",flancito.wav,left,,inc_j_beg_04,2023-07-20_09h22.31.002,auditory_ldt_2023_esp_list1,2021.1.1,Win32,60.0024001,,,1,1,0.2953,0,87,87,87,1,1,,
,,,,,,,,,,,,sepota,morfosyllable,NA,NA,NA,NA,NA,NA,pseudoword,"1,2and3",sepota.wav,right,,inc_j_beg_04,2023-07-20_09h22.31.002,auditory_ldt_2023_esp_list1,2021.1.1,Win32,60.0024001,,,0,1,39.6367,0,88,88,88,1,0,,
,,,,,,,,,,,,draiais,InflectionalVerbs,NA,NA,NA,NA,NA,NA,pseudoword,1,draiais.wav,right,,inc_j_beg_04,2023-07-20_09h22.31.002,auditory_ldt_2023_esp_list1,2021.1.1,Win32,60.0024001,,,0,1,0.0476,0,89,89,89,1,0,,
,,,,,,,,,,,,teñiais,InflectionalVerbs,NA,NA,NA,4,Low,0.36,word,1,teñiais.wav,left,,inc_j_beg_04,2023-07-20_09h22.31.002,auditory_ldt_2023_esp_list1,2021.1.1,Win32,60.0024001,,,1,1,0.2256,0,90,90,90,1,1,,
,,,,,,,,,,,,retuto,morfosyllable,NA,NA,NA,NA,NA,NA,pseudoword,"1,2and3",retuto.wav,right,,inc_j_beg_04,2023-07-20_09h22.31.002,auditory_ldt_2023_esp_list1,2021.1.1,Win32,60.0024001,,,1,0,0.1775,0,91,91,91,1,0,,
,,,,,,,,,,,,flunsuto,morfosyllable,NA,NA,NA,NA,NA,NA,pseudoword,"1,2and3",flunsuto.wav,right,,inc_j_beg_04,2023-07-20_09h22.31.002,auditory_ldt_2023_esp_list1,2021.1.1,Win32,60.0024001,,,1,0,0.3703,0,92,92,92,1,0,,
,,,,,,,,,,,,huevito,morfosyllable,diferente,NA,NA,NA,NA,NA,word,"1,2and3",huevito.wav,left,,inc_j_beg_04,2023-07-20_09h22.31.002,auditory_ldt_2023_esp_list1,2021.1.1,Win32,60.0024001,,,1,1,0.4441,0,93,93,93,1,1,,
,,,,,,,,,,,,torito,morfosyllable,diferente,NA,NA,NA,NA,NA,word,"1,2and3",torito.wav,left,,inc_j_beg_04,2023-07-20_09h22.31.002,auditory_ldt_2023_esp_list1,2021.1.1,Win32,60.0024001,,,0,0,3.5954,0,94,94,94,1,1,,
,,,,,,,,,,,,destrudar,visuospatial,NA,NA,NA,NA,NA,NA,pseudoword,"1,2and3",destrudar.wav,right,,inc_j_beg_04,2023-07-20_09h22.31.002,auditory_ldt_2023_esp_list1,2021.1.1,Win32,60.0024001,,,0,1,0.2659,0,95,95,95,1,0,,
,,,,,,,,,,,,golcito,morfosyllable,coincidente,3,NA,NA,NA,NA,word,"1,2and3",golcito.wav,left,,inc_j_beg_04,2023-07-20_09h22.31.002,auditory_ldt_2023_esp_list1,2021.1.1,Win32,60.0024001,,,1,1,0.0481,0,96,96,96,1,1,,
,,,,,,,,,,,,trinsuto,morfosyllable,NA,NA,NA,NA,NA,NA,pseudoword,"1,2and3",trinsuto.wav,right,,inc_j_beg_04,2023-07-20_09h22.31.002,auditory_ldt_2023_esp_list1,2021.1.1,Win32,60.0024001,,,0,1,1.9295,0,97,97,97,1,0,,
,,,,,,,,,,,,nacias,InflectionalVerbs,NA,NA,NA,3,High,21.67,word,1,nacias.wav,left,,inc_j_beg_04,2023-07-20_09h22.31.002,auditory_ldt_2023_esp_list1,2021.1.1,Win32,60.0024001,,,1,1,0.659,0,98,98,98,1,1,,
,,,,,,,,,,,,aprobar,visuospatial,NA,NA,no,NA,NA,NA,word,"1,2and3",aprobar.wav,left,,inc_j_beg_04,2023-07-20_09h22.31.002,auditory_ldt_2023_esp_list1,2021.1.1,Win32,60.0024001,,,0,0,0.3101,0,99,99,99,1,1,,
,,,,,,,,,,,,aprongar,visuospatial,NA,NA,NA,NA,NA,NA,pseudoword,"1,2and3",aprongar.wav,right,,inc_j_beg_04,2023-07-20_09h22.31.002,auditory_ldt_2023_esp_list1,2021.1.1,Win32,60.0024001,,,0,1,0.8004,0,100,100,100,1,0,,
,,,,,,,,,,,,ardiais,InflectionalVerbs,NA,NA,NA,4,Low,3.38,word,1,ardiais.wav,left,,inc_j_beg_04,2023-07-20_09h22.31.002,auditory_ldt_2023_esp_list1,2021.1.1,Win32,60.0024001,,,1,1,0.2804,0,101,101,101,1,1,,
,,,,,,,,,,,,mogia,InflectionalVerbs,NA,NA,NA,NA,NA,NA,pseudoword,1,mogia.wav,right,,inc_j_beg_04,2023-07-20_09h22.31.002,auditory_ldt_2023_esp_list1,2021.1.1,Win32,60.0024001,,,0,1,0.2453,0,102,102,102,1,0,,
,,,,,,,,,,,,alubar,visuospatial,NA,NA,NA,NA,NA,NA,pseudoword,"1,2and3",alubar.wav,right,,inc_j_beg_04,2023-07-20_09h22.31.002,auditory_ldt_2023_esp_list1,2021.1.1,Win32,60.0024001,,,0,1,0.0082,0,103,103,103,1,0,,
,,,,,,,,,,,,piluto,morfosyllable,NA,NA,NA,NA,NA,NA,pseudoword,"1,2and3",piluto.wav,right,,inc_j_beg_04,2023-07-20_09h22.31.002,auditory_ldt_2023_esp_list1,2021.1.1,Win32,60.0024001,,,1,0,0.4102,0,104,104,104,1,0,,
,,,,,,,,,,,,despreciar,visuospatial,NA,NA,no,NA,NA,NA,word,"1,2and3",despreciar.wav,left,,inc_j_beg_04,2023-07-20_09h22.31.002,auditory_ldt_2023_esp_list1,2021.1.1,Win32,60.0024001,,,0,0,0.3974,0,105,105,105,1,1,,
,,,,,,,,,,,,pariais,InflectionalVerbs,NA,NA,NA,4,Low,5.86,word,1,pariais.wav,left,,inc_j_beg_04,2023-07-20_09h22.31.002,auditory_ldt_2023_esp_list1,2021.1.1,Win32,60.0024001,,,0,0,0.4791,0,106,106,106,1,1,,
,,,,,,,,,,,,roncito,morfosyllable,coincidente,3,NA,NA,NA,NA,word,"1,2and3",roncito.wav,left,,inc_j_beg_04,2023-07-20_09h22.31.002,auditory_ldt_2023_esp_list1,2021.1.1,Win32,60.0024001,,,1,1,0.4919,0,107,107,107,1,1,,
,,,,,,,,,,,,pensuto,morfosyllable,NA,NA,NA,NA,NA,NA,pseudoword,"1,2and3",pensuto.wav,right,,inc_j_beg_04,2023-07-20_09h22.31.002,auditory_ldt_2023_esp_list1,2021.1.1,Win32,60.0024001,,,0,1,0.1929,0,108,108,108,1,0,,
,,,,,,,,,,,,afarbar,visuospatial,NA,NA,NA,NA,NA,NA,pseudoword,"1,2and3",afarbar.wav,right,,inc_j_beg_04,2023-07-20_09h22.31.002,auditory_ldt_2023_esp_list1,2021.1.1,Win32,60.0024001,,,0,1,0.2108,0,109,109,109,1,0,,
,,,,,,,,,,,,abordar,visuospatial,NA,NA,yes,NA,NA,NA,word,"1,2and3",abordar.wav,left,,inc_j_beg_04,2023-07-20_09h22.31.002,auditory_ldt_2023_esp_list1,2021.1.1,Win32,60.0024001,,,1,1,0.145,0,110,110,110,1,1,,
,,,,,,,,,,,,leguto,morfosyllable,NA,NA,NA,NA,NA,NA,pseudoword,"1,2and3",leguto.wav,right,,inc_j_beg_04,2023-07-20_09h22.31.002,auditory_ldt_2023_esp_list1,2021.1.1,Win32,60.0024001,,,0,1,0.1096,0,111,111,111,1,0,,
,,,,,,,,,,,,agarrar,visuospatial,NA,NA,yes,NA,NA,NA,word,"1,2and3",agarrar.wav,left,,inc_j_beg_04,2023-07-20_09h22.31.002,auditory_ldt_2023_esp_list1,2021.1.1,Win32,60.0024001,,,1,1,0.1762,0,112,112,112,1,1,,
,,,,,,,,,,,,laguito,morfosyllable,diferente,NA,NA,NA,NA,NA,word,"1,2and3",laguito.wav,left,,inc_j_beg_04,2023-07-20_09h22.31.002,auditory_ldt_2023_esp_list1,2021.1.1,Win32,60.0024001,,,1,1,0.1638,0,113,113,113,1,1,,
,,,,,,,,,,,,florcita,morfosyllable,coincidente,4,NA,NA,NA,NA,word,"1,2and3",florcita.wav,left,,inc_j_beg_04,2023-07-20_09h22.31.002,auditory_ldt_2023_esp_list1,2021.1.1,Win32,60.0024001,,,0,0,0.263,0,114,114,114,1,1,,
,,,,,,,,,,,,alargar,visuospatial,NA,NA,yes,NA,NA,NA,word,"1,2and3",alargar.wav,left,,inc_j_beg_04,2023-07-20_09h22.31.002,auditory_ldt_2023_esp_list1,2021.1.1,Win32,60.0024001,,,1,1,0.0609,0,115,115,115,1,1,,
,,,,,,,,,,,,fulias,InflectionalVerbs,NA,NA,NA,NA,NA,NA,pseudoword,1,fulias.wav,right,,inc_j_beg_04,2023-07-20_09h22.31.002,auditory_ldt_2023_esp_list1,2021.1.1,Win32,60.0024001,,,0,1,0.2719,0,116,116,116,1,0,,
,,,,,,,,,,,,apencrar,visuospatial,NA,NA,NA,NA,NA,NA,pseudoword,"1,2and3",apencrar.wav,right,,inc_j_beg_04,2023-07-20_09h22.31.002,auditory_ldt_2023_esp_list1,2021.1.1,Win32,60.0024001,,,0,1,0.0595,0,117,117,117,1,0,,
,,,,,,,,,,,,regia,InflectionalVerbs,NA,NA,NA,2,Low,1.95,word,1,regia.wav,left,,inc_j_beg_04,2023-07-20_09h22.31.002,auditory_ldt_2023_esp_list1,2021.1.1,Win32,60.0024001,,,0,0,0.1117,0,118,118,118,1,1,,
,,,,,,,,,,,,potiais,InflectionalVerbs,NA,NA,NA,NA,NA,NA,pseudoword,1,potiais.wav,right,,inc_j_beg_04,2023-07-20_09h22.31.002,auditory_ldt_2023_esp_list1,2021.1.1,Win32,60.0024001,,,1,0,0.2089,0,119,119,119,1,0,,
,,,,,,,,,,,,metiais,InflectionalVerbs,NA,NA,NA,4,High,23.09,word,1,metiais.wav,left,,inc_j_beg_04,2023-07-20_09h22.31.002,auditory_ldt_2023_esp_list1,2021.1.1,Win32,60.0024001,,,0,0,0.1323,0,120,120,120,1,1,,
,,,,,,,,,,,,clubcito,morfosyllable,coincidente,4,NA,NA,NA,NA,word,"1,2and3",clubcito.wav,left,,inc_j_beg_04,2023-07-20_09h22.31.002,auditory_ldt_2023_esp_list1,2021.1.1,Win32,60.0024001,,,0,0,0.0971,0,121,121,121,1,1,,
,,,,,,,,,,,,arruinar,visuospatial,NA,NA,no,NA,NA,NA,word,"1,2and3",arruinar.wav,left,,inc_j_beg_04,2023-07-20_09h22.31.002,auditory_ldt_2023_esp_list1,2021.1.1,Win32,60.0024001,,,1,1,0.0275,0,122,122,122,1,1,,
,,,,,,,,,,,,volvias,InflectionalVerbs,NA,NA,NA,3,High,120.09,word,1,volvias.wav,left,,inc_j_beg_04,2023-07-20_09h22.31.002,auditory_ldt_2023_esp_list1,2021.1.1,Win32,60.0024001,,,0,0,0.0311,0,123,123,123,1,1,,
,,,,,,,,,,,,vamiais,InflectionalVerbs,NA,NA,NA,NA,NA,NA,pseudoword,1,vamiais.wav,right,,inc_j_beg_04,2023-07-20_09h22.31.002,auditory_ldt_2023_esp_list1,2021.1.1,Win32,60.0024001,,,1,0,0.03,0,124,124,124,1,0,,
,,,,,,,,,,,,cogia,InflectionalVerbs,NA,NA,NA,2,High,17.76,word,1,cogia.wav,left,,inc_j_beg_04,2023-07-20_09h22.31.002,auditory_ldt_2023_esp_list1,2021.1.1,Win32,60.0024001,,,1,1,0.0094,0,125,125,125,1,1,,
,,,,,,,,,,,,mordia,InflectionalVerbs,NA,NA,NA,2,Low,3.55,word,1,mordia.wav,left,,inc_j_beg_04,2023-07-20_09h22.31.002,auditory_ldt_2023_esp_list1,2021.1.1,Win32,60.0024001,,,1,1,0.1423,0,126,126,126,1,1,,
,,,,,,,,,,,,subias,InflectionalVerbs,NA,NA,NA,3,High,36.77,word,1,subias.wav,left,,inc_j_beg_04,2023-07-20_09h22.31.002,auditory_ldt_2023_esp_list1,2021.1.1,Win32,60.0024001,,,0,0,7.0979,0,127,127,127,1,1,,
,,,,,,,,,,,,desconfiar,visuospatial,NA,NA,no,NA,NA,NA,word,"1,2and3",desconfiar.wav,left,,inc_j_beg_04,2023-07-20_09h22.31.002,auditory_ldt_2023_esp_list1,2021.1.1,Win32,60.0024001,,,1,1,0.0451,0,128,128,128,1,1,,
,,,,,,,,,,,,afirmar,visuospatial,NA,NA,no,NA,NA,NA,word,"1,2and3",afirmar.wav,left,,inc_j_beg_04,2023-07-20_09h22.31.002,auditory_ldt_2023_esp_list1,2021.1.1,Win32,60.0024001,,,1,1,0.0933,0,129,129,129,1,1,,
,,,,,,,,,,,,vendia,InflectionalVerbs,NA,NA,NA,2,High,22.74,word,1,vendia.wav,left,,inc_j_beg_04,2023-07-20_09h22.31.002,auditory_ldt_2023_esp_list1,2021.1.1,Win32,60.0024001,,,0,0,0.2088,0,130,130,130,1,1,,
,,,,,,,,,,,,bisuto,morfosyllable,NA,NA,NA,NA,NA,NA,pseudoword,"1,2and3",bisuto.wav,right,,inc_j_beg_04,2023-07-20_09h22.31.002,auditory_ldt_2023_esp_list1,2021.1.1,Win32,60.0024001,,,0,1,0.0079,0,131,131,131,1,0,,
,,,,,,,,,,,,despegar,visuospatial,NA,NA,yes,NA,NA,NA,word,"1,2and3",despegar.wav,left,,inc_j_beg_04,2023-07-20_09h22.31.002,auditory_ldt_2023_esp_list1,2021.1.1,Win32,60.0024001,,,0,0,54.1802,0,132,132,132,1,1,,
,,,,,,,,,,,,pumia,InflectionalVerbs,NA,NA,NA,NA,NA,NA,pseudoword,1,pumia.wav,right,,inc_j_beg_04,2023-07-20_09h22.31.002,auditory_ldt_2023_esp_list1,2021.1.1,Win32,60.0024001,,,0,1,0.0757,0,133,133,133,1,0,,
,,,,,,,,,,,,noia,InflectionalVerbs,NA,NA,NA,NA,NA,NA,pseudoword,1,noia.wav,right,,inc_j_beg_04,2023-07-20_09h22.31.002,auditory_ldt_2023_esp_list1,2021.1.1,Win32,60.0024001,,,0,1,0.3601,0,134,134,134,1,0,,
,,,,,,,,,,,,gemia,InflectionalVerbs,NA,NA,NA,2,Low,1.42,word,1,gemia.wav,left,,inc_j_beg_04,2023-07-20_09h22.31.002,auditory_ldt_2023_esp_list1,2021.1.1,Win32,60.0024001,,,1,1,0.3762,0,135,135,135,1,1,,
,,,,,,,,,,,,reasuto,morfosyllable,NA,NA,NA,NA,NA,NA,pseudoword,"1,2and3",reasuto.wav,right,,inc_j_beg_04,2023-07-20_09h22.31.002,auditory_ldt_2023_esp_list1,2021.1.1,Win32,60.0024001,,,1,0,0.1595,0,136,136,136,1,0,,
,,,,,,,,,,,,reycito,morfosyllable,coincidente,3,NA,NA,NA,NA,word,"1,2and3",reycito.wav,left,,inc_j_beg_04,2023-07-20_09h22.31.002,auditory_ldt_2023_esp_list1,2021.1.1,Win32,60.0024001,,,0,0,0.2482,0,137,137,137,1,1,,
,,,,,,,,,,,,barcito,morfosyllable,coincidente,3,NA,NA,NA,NA,word,"1,2and3",barcito.wav,left,,inc_j_beg_04,2023-07-20_09h22.31.002,auditory_ldt_2023_esp_list1,2021.1.1,Win32,60.0024001,,,1,1,0.1967,0,138,138,138,1,1,,
,,,,,,,,,,,,endiais,InflectionalVerbs,NA,NA,NA,NA,NA,NA,pseudoword,1,endiais.wav,right,,inc_j_beg_04,2023-07-20_09h22.31.002,auditory_ldt_2023_esp_list1,2021.1.1,Win32,60.0024001,,,1,0,0.2965,0,139,139,139,1,0,,
,,,,,,,,,,,,molias,InflectionalVerbs,NA,NA,NA,3,Low,0.71,word,1,molias.wav,left,,inc_j_beg_04,2023-07-20_09h22.31.002,auditory_ldt_2023_esp_list1,2021.1.1,Win32,60.0024001,,,0,0,0.1058,0,140,140,140,1,1,,
,,,,,,,,,,,,limuto,morfosyllable,NA,NA,NA,NA,NA,NA,pseudoword,"1,2and3",limuto.wav,right,,inc_j_beg_04,2023-07-20_09h22.31.002,auditory_ldt_2023_esp_list1,2021.1.1,Win32,60.0024001,,,1,0,0.0099,0,141,141,141,1,0,,
,,,,,,,,,,,,durcia,InflectionalVerbs,NA,NA,NA,NA,NA,NA,pseudoword,1,durcia.wav,right,,inc_j_beg_04,2023-07-20_09h22.31.002,auditory_ldt_2023_esp_list1,2021.1.1,Win32,60.0024001,,,0,1,0.1137,0,142,142,142,1,0,,
,,,,,,,,,,,,leia,InflectionalVerbs,NA,NA,NA,2,High,70.17,word,1,leia.wav,left,,inc_j_beg_04,2023-07-20_09h22.31.002,auditory_ldt_2023_esp_list1,2021.1.1,Win32,60.0024001,,,0,0,0.1932,0,143,143,143,1,1,,
,,,,,,,,,,,,kemuta,morfosyllable,NA,NA,NA,NA,NA,NA,pseudoword,"1,2and3",kemuta.wav,right,,inc_j_beg_04,2023-07-20_09h22.31.002,auditory_ldt_2023_esp_list1,2021.1.1,Win32,60.0024001,,,1,0,0.3552,0,144,144,144,1,0,,
,,,,,,,,,,,,honiais,InflectionalVerbs,NA,NA,NA,NA,NA,NA,pseudoword,1,honiais.wav,right,,inc_j_beg_04,2023-07-20_09h22.31.002,auditory_ldt_2023_esp_list1,2021.1.1,Win32,60.0024001,,,0,1,0.1154,0,145,145,145,1,0,,
,,,,,,,,,,,,adentrar,visuospatial,NA,NA,yes,NA,NA,NA,word,"1,2and3",adentrar.wav,left,,inc_j_beg_04,2023-07-20_09h22.31.002,auditory_ldt_2023_esp_list1,2021.1.1,Win32,60.0024001,,,0,0,0.0923,0,146,146,146,1,1,,
,,,,,,,,,,,,amurdar,visuospatial,NA,NA,NA,NA,NA,NA,pseudoword,"1,2and3",amurdar.wav,right,,inc_j_beg_04,2023-07-20_09h22.31.002,auditory_ldt_2023_esp_list1,2021.1.1,Win32,60.0024001,,,0,1,0.1325,0,147,147,147,1,0,,
,,,,,,,,,,,,caias,InflectionalVerbs,NA,NA,NA,3,High,84.38,word,1,caias.wav,left,,inc_j_beg_04,2023-07-20_09h22.31.002,auditory_ldt_2023_esp_list1,2021.1.1,Win32,60.0024001,,,0,0,0.0761,0,148,148,148,1,1,,
,,,,,,,,,,,,pelito,morfosyllable,diferente,NA,NA,NA,NA,NA,word,"1,2and3",pelito.wav,left,,inc_j_beg_04,2023-07-20_09h22.31.002,auditory_ldt_2023_esp_list1,2021.1.1,Win32,60.0024001,,,1,1,0.0781,0,149,149,149,1,1,,
,,,,,,,,,,,,trencito,morfosyllable,coincidente,4,NA,NA,NA,NA,word,"1,2and3",trencito.wav,left,,inc_j_beg_04,2023-07-20_09h22.31.002,auditory_ldt_2023_esp_list1,2021.1.1,Win32,60.0024001,,,0,0,0.6776,0,150,150,150,1,1,,
,,,,,,,,,,,,flaia,InflectionalVerbs,NA,NA,NA,NA,NA,NA,pseudoword,1,flaia.wav,right,,inc_j_beg_04,2023-07-20_09h22.31.002,auditory_ldt_2023_esp_list1,2021.1.1,Win32,60.0024001,,,1,0,2.492,0,151,151,151,1,0,,
,,,,,,,,,,,,rensuto,morfosyllable,NA,NA,NA,NA,NA,NA,pseudoword,"1,2and3",rensuto.wav,right,,inc_j_beg_04,2023-07-20_09h22.31.002,auditory_ldt_2023_esp_list1,2021.1.1,Win32,60.0024001,,,1,0,0.0456,0,152,152,152,1,0,,
,,,,,,,,,,,,remuta,morfosyllable,NA,NA,NA,NA,NA,NA,pseudoword,"1,2and3",remuta.wav,right,,inc_j_beg_04,2023-07-20_09h22.31.002,auditory_ldt_2023_esp_list1,2021.1.1,Win32,60.0024001,,,0,1,0.0429,0,153,153,153,1,0,,
,,,,,,,,,,,,arrastrar,visuospatial,NA,NA,yes,NA,NA,NA,word,"1,2and3",arrastrar.wav,left,,inc_j_beg_04,2023-07-20_09h22.31.002,auditory_ldt_2023_esp_list1,2021.1.1,Win32,60.0024001,,,0,0,0.2599,0,154,154,154,1,1,,
,,,,,,,,,,,,apasfrar,visuospatial,NA,NA,NA,NA,NA,NA,pseudoword,"1,2and3",apasfrar.wav,right,,inc_j_beg_04,2023-07-20_09h22.31.002,auditory_ldt_2023_esp_list1,2021.1.1,Win32,60.0024001,,,0,1,0.0812,0,155,155,155,1,0,,
,,,,,,,,,,,,pindias,InflectionalVerbs,NA,NA,NA,NA,NA,NA,pseudoword,1,pindias.wav,right,,inc_j_beg_04,2023-07-20_09h22.31.002,auditory_ldt_2023_esp_list1,2021.1.1,Win32,60.0024001,,,1,0,0.0257,0,156,156,156,1,0,,
,,,,,,,,,,,,nisiais,InflectionalVerbs,NA,NA,NA,NA,NA,NA,pseudoword,1,nisiais.wav,right,,inc_j_beg_04,2023-07-20_09h22.31.002,auditory_ldt_2023_esp_list1,2021.1.1,Win32,60.0024001,,,0,1,14.476,0,157,157,157,1,0,,
,,,,,,,,,,,,pediais,InflectionalVerbs,NA,NA,NA,4,High,50.1,word,1,pediais.wav,left,,inc_j_beg_04,2023-07-20_09h22.31.002,auditory_ldt_2023_esp_list1,2021.1.1,Win32,60.0024001,,,0,0,0.1168,0,158,158,158,1,1,,
,,,,,,,,,,,,carrito,morfosyllable,diferente,NA,NA,NA,NA,NA,word,"1,2and3",carrito.wav,left,,inc_j_beg_04,2023-07-20_09h22.31.002,auditory_ldt_2023_esp_list1,2021.1.1,Win32,60.0024001,,,0,0,0.0089,0,159,159,159,1,1,,
,,,,,,,,,,,,tosiais,InflectionalVerbs,NA,NA,NA,4,Low,1.42,word,1,tosiais.wav,left,,inc_j_beg_04,2023-07-20_09h22.31.002,auditory_ldt_2023_esp_list1,2021.1.1,Win32,60.0024001,,,0,0,0.3267,0,160,160,160,1,1,,
,,,,,,,,,,,,flirsuta,morfosyllable,NA,NA,NA,NA,NA,NA,pseudoword,"1,2and3",flirsuta.wav,right,,inc_j_beg_04,2023-07-20_09h22.31.002,auditory_ldt_2023_esp_list1,2021.1.1,Win32,60.0024001,,,0,1,0.0851,0,161,161,161,1,0,,
,,,,,,,,,,,,cedia,InflectionalVerbs,NA,NA,NA,2,Low,13.68,word,1,cedia.wav,left,,inc_j_beg_04,2023-07-20_09h22.31.002,auditory_ldt_2023_esp_list1,2021.1.1,Win32,60.0024001,,,0,0,0.1798,0,162,162,162,1,1,,
,,,,,,,,,,,,surrias,InflectionalVerbs,NA,NA,NA,NA,NA,NA,pseudoword,1,surrias.wav,right,,inc_j_beg_04,2023-07-20_09h22.31.002,auditory_ldt_2023_esp_list1,2021.1.1,Win32,60.0024001,,,0,1,0.1643,0,163,163,163,1,0,,
,,,,,,,,,,,,ramita,morfosyllable,diferente,NA,NA,NA,NA,NA,word,"1,2and3",ramita.wav,left,,inc_j_beg_04,2023-07-20_09h22.31.002,auditory_ldt_2023_esp_list1,2021.1.1,Win32,60.0024001,,,0,0,0.0823,0,164,164,164,1,1,,
,,,,,,,,,,,,puartuto,morfosyllable,NA,NA,NA,NA,NA,NA,pseudoword,"1,2and3",puartuto.wav,right,,inc_j_beg_04,2023-07-20_09h22.31.002,auditory_ldt_2023_esp_list1,2021.1.1,Win32,60.0024001,,,0,1,0.0137,0,165,165,165,1,0,,
,,,,,,,,,,,,aclarar,visuospatial,NA,NA,no,NA,NA,NA,word,"1,2and3",aclarar.wav,left,,inc_j_beg_04,2023-07-20_09h22.31.002,auditory_ldt_2023_esp_list1,2021.1.1,Win32,60.0024001,,,1,1,0.046,0,166,166,166,1,1,,
,,,,,,,,,,,,ratito,morfosyllable,diferente,NA,NA,NA,NA,NA,word,"1,2and3",ratito.wav,left,,inc_j_beg_04,2023-07-20_09h22.31.002,auditory_ldt_2023_esp_list1,2021.1.1,Win32,60.0024001,,,1,1,0.0127,0,167,167,167,1,1,,
,,,,,,,,,,,,afemar,visuospatial,NA,NA,NA,NA,NA,NA,pseudoword,"1,2and3",afemar.wav,right,,inc_j_beg_04,2023-07-20_09h22.31.002,auditory_ldt_2023_esp_list1,2021.1.1,Win32,60.0024001,,,0,1,0.0921,0,168,168,168,1,0,,
,,,,,,,,,,,,gelcito,morfosyllable,coincidente,3,NA,NA,NA,NA,word,"1,2and3",gelcito.wav,left,,inc_j_beg_04,2023-07-20_09h22.31.002,auditory_ldt_2023_esp_list1,2021.1.1,Win32,60.0024001,,,1,1,0.4768,0,169,169,169,1,1,,
,,,,,,,,,,,,,,,,,,,,,,,,,inc_j_beg_04,2023-07-20_09h22.31.002,auditory_ldt_2023_esp_list1,2021.1.1,Win32,60.0024001,,,,,,,,,,,,space,3.9289
