"trial_type","trial_index","time_elapsed","internal_node_id","userID","sessionType","success","rt","responses","stage","stimulus","key_press","sequence","recall","sequence_last_digits","digit","correct"
"pavlovia","0","6","0.0-0.0","L2SPAN_2023_45","PRE","","","","","","","","","","",""
"fullscreen","1","5370","0.0-1.0","L2SPAN_2023_45","PRE","true","","","","","","","","","",""
"survey-html-form","2","11647","0.0-2.0","L2SPAN_2023_45","PRE","","5608.299999952316","{""userID"":""L2SPAN_2023_45"",""type"":""PRE""}","userID","","","","","","",""
"html-keyboard-response","3","13962","0.0-3.0","L2SPAN_2023_45","PRE","","1645.4000000953674","","","<p>Welcome to this task.</p>			<p>You will see a set of numbers, presented one at a time.<br/>			You need to pay attention to the numbers in the list and their order.<br/>			The list will end abruptly at any time. You will be told to enter the LAST X number of digits.</p>			<p>[Press SPACE to practice]</p>","32","","","","",""
"html-keyboard-response","4","14788","0.0-4.0","L2SPAN_2023_45","PRE","","null","","fixation cross","<div class='stimulus'>+</div>","null","","","","",""
"html-keyboard-response","5","16580","0.0-5.0","L2SPAN_2023_45","PRE","","null","","practice display digit","<div class=""stimulus"">9</div>","null","9,8,3","","","",""
"html-keyboard-response","6","18372","0.0-6.0","L2SPAN_2023_45","PRE","","null","","practice display digit","<div class=""stimulus"">8</div>","null","9,8,3","","","",""
"html-keyboard-response","7","20164","0.0-7.0","L2SPAN_2023_45","PRE","","null","","practice display digit","<div class=""stimulus"">3</div>","null","9,8,3","","","",""
"survey-html-form-autofocus","8","25363","0.0-8.0","L2SPAN_2023_45","PRE","","4534","{""recall"":""83""}","practice recall","","","983","","83","",""
"html-keyboard-response","9","27135","0.0-9.0","L2SPAN_2023_45","PRE","","1108.5","","","<span class='correct'>Perfect!</span><br/>Press SPACE to continue.","32","","","","",""
"html-keyboard-response","10","27961","0.0-10.0","L2SPAN_2023_45","PRE","","null","","fixation cross","<div class='stimulus'>+</div>","null","","","","",""
"html-keyboard-response","11","29764","0.0-11.0","L2SPAN_2023_45","PRE","","null","","practice display digit","<div class=""stimulus"">4</div>","null","4,8,2,1,9","","","",""
"html-keyboard-response","12","31556","0.0-12.0","L2SPAN_2023_45","PRE","","null","","practice display digit","<div class=""stimulus"">8</div>","null","4,8,2,1,9","","","",""
"html-keyboard-response","13","33348","0.0-13.0","L2SPAN_2023_45","PRE","","null","","practice display digit","<div class=""stimulus"">2</div>","null","4,8,2,1,9","","","",""
"html-keyboard-response","14","35140","0.0-14.0","L2SPAN_2023_45","PRE","","null","","practice display digit","<div class=""stimulus"">1</div>","null","4,8,2,1,9","","","",""
"html-keyboard-response","15","36931","0.0-15.0","L2SPAN_2023_45","PRE","","null","","practice display digit","<div class=""stimulus"">9</div>","null","4,8,2,1,9","","","",""
"survey-html-form-autofocus","16","42079","0.0-16.0","L2SPAN_2023_45","PRE","","4483.700000047684","{""recall"":""219""}","practice recall","","","48219","","219","",""
"html-keyboard-response","17","44163","0.0-17.0","L2SPAN_2023_45","PRE","","1417.6999998092651","","","<span class='correct'>Perfect!</span><br/>Press SPACE to continue.","32","","","","",""
"html-keyboard-response","18","44984","0.0-18.0","L2SPAN_2023_45","PRE","","null","","fixation cross","<div class='stimulus'>+</div>","null","","","","",""
"html-keyboard-response","19","46787","0.0-19.0","L2SPAN_2023_45","PRE","","null","","practice display digit","<div class=""stimulus"">5</div>","null","5,7,1,9,4,2,3,6","","","",""
"html-keyboard-response","20","48579","0.0-20.0","L2SPAN_2023_45","PRE","","null","","practice display digit","<div class=""stimulus"">7</div>","null","5,7,1,9,4,2,3,6","","","",""
"html-keyboard-response","21","50371","0.0-21.0","L2SPAN_2023_45","PRE","","null","","practice display digit","<div class=""stimulus"">1</div>","null","5,7,1,9,4,2,3,6","","","",""
"html-keyboard-response","22","52163","0.0-22.0","L2SPAN_2023_45","PRE","","null","","practice display digit","<div class=""stimulus"">9</div>","null","5,7,1,9,4,2,3,6","","","",""
"html-keyboard-response","23","53955","0.0-23.0","L2SPAN_2023_45","PRE","","null","","practice display digit","<div class=""stimulus"">4</div>","null","5,7,1,9,4,2,3,6","","","",""
"html-keyboard-response","24","55747","0.0-24.0","L2SPAN_2023_45","PRE","","null","","practice display digit","<div class=""stimulus"">2</div>","null","5,7,1,9,4,2,3,6","","","",""
"html-keyboard-response","25","57539","0.0-25.0","L2SPAN_2023_45","PRE","","null","","practice display digit","<div class=""stimulus"">3</div>","null","5,7,1,9,4,2,3,6","","","",""
"html-keyboard-response","26","59331","0.0-26.0","L2SPAN_2023_45","PRE","","null","","practice display digit","<div class=""stimulus"">6</div>","null","5,7,1,9,4,2,3,6","","","",""
"survey-html-form-autofocus","27","64662","0.0-27.0","L2SPAN_2023_45","PRE","","4667.399999856949","{""recall"":""1236""}","practice recall","","","57194236","","4236","",""
"html-keyboard-response","28","72993","0.0-28.0","L2SPAN_2023_45","PRE","","7661.700000047684","","","<p>The sequence was 57194236					and you input 1236.<br/>					<span class='incorrect'>You should have written 4236.</span></p>						<p>Press SPACE to continue</p>","32","","","","",""
"html-keyboard-response","29","78091","0.0-29.0","L2SPAN_2023_45","PRE","","5081","","","<p>That was the practice section.<br/>			<p>Now goes the official part of the task.<br/>			You won't be given any feedback on your performance.</p>			<p>R U ready?</p>			<p>[Press Y to begin]</p>","89","","","","",""
"html-keyboard-response","30","79570","0.0-30.0","L2SPAN_2023_45","PRE","","null","","fixation cross","<div class='stimulus'>+</div>","null","","","","",""
"html-keyboard-response","31","81361","0.0-31.0","L2SPAN_2023_45","PRE","","null","","display digit","<div class=""stimulus"">1</div>","null","1,4,1,2,3,8,7,5","","","1",""
"html-keyboard-response","32","83154","0.0-32.0","L2SPAN_2023_45","PRE","","null","","display digit","<div class=""stimulus"">4</div>","null","1,4,1,2,3,8,7,5","","","4",""
"html-keyboard-response","33","84946","0.0-33.0","L2SPAN_2023_45","PRE","","null","","display digit","<div class=""stimulus"">1</div>","null","1,4,1,2,3,8,7,5","","","1",""
"html-keyboard-response","34","86738","0.0-34.0","L2SPAN_2023_45","PRE","","null","","display digit","<div class=""stimulus"">2</div>","null","1,4,1,2,3,8,7,5","","","2",""
"html-keyboard-response","35","88529","0.0-35.0","L2SPAN_2023_45","PRE","","null","","display digit","<div class=""stimulus"">3</div>","null","1,4,1,2,3,8,7,5","","","3",""
"html-keyboard-response","36","90321","0.0-36.0","L2SPAN_2023_45","PRE","","null","","display digit","<div class=""stimulus"">8</div>","null","1,4,1,2,3,8,7,5","","","8",""
"html-keyboard-response","37","92114","0.0-37.0","L2SPAN_2023_45","PRE","","null","","display digit","<div class=""stimulus"">7</div>","null","1,4,1,2,3,8,7,5","","","7",""
"html-keyboard-response","38","93905","0.0-38.0","L2SPAN_2023_45","PRE","","null","","display digit","<div class=""stimulus"">5</div>","null","1,4,1,2,3,8,7,5","","","5",""
"survey-html-form-autofocus","39","97620","0.0-39.0","L2SPAN_2023_45","PRE","","3050.2000000476837","{""recall"":""5""}","recall","","","14123875","5","5","","true"
"html-keyboard-response","40","99094","0.0-40.0","L2SPAN_2023_45","PRE","","null","","fixation cross","<div class='stimulus'>+</div>","null","","","","",""
"html-keyboard-response","41","100897","0.0-41.0","L2SPAN_2023_45","PRE","","null","","display digit","<div class=""stimulus"">1</div>","null","1,2,1,9","","","1",""
"html-keyboard-response","42","102689","0.0-42.0","L2SPAN_2023_45","PRE","","null","","display digit","<div class=""stimulus"">2</div>","null","1,2,1,9","","","2",""
"html-keyboard-response","43","104481","0.0-43.0","L2SPAN_2023_45","PRE","","null","","display digit","<div class=""stimulus"">1</div>","null","1,2,1,9","","","1",""
"html-keyboard-response","44","106273","0.0-44.0","L2SPAN_2023_45","PRE","","null","","display digit","<div class=""stimulus"">9</div>","null","1,2,1,9","","","9",""
"survey-html-form-autofocus","45","110478","0.0-45.0","L2SPAN_2023_45","PRE","","3540.399999856949","{""recall"":""9""}","recall","","","1219","9","9","","true"
"html-keyboard-response","46","111953","0.0-46.0-0.0","L2SPAN_2023_45","PRE","","null","","fixation cross","<div class='stimulus'>+</div>","null","","","","",""
"html-keyboard-response","47","113745","0.0-46.0-1.0","L2SPAN_2023_45","PRE","","null","","display digit","<div class=""stimulus"">1</div>","null","1,6,1,9,6,1,9,8,6,3,6,2,0","","","1",""
"html-keyboard-response","48","115536","0.0-46.0-2.0","L2SPAN_2023_45","PRE","","null","","display digit","<div class=""stimulus"">6</div>","null","1,6,1,9,6,1,9,8,6,3,6,2,0","","","6",""
"html-keyboard-response","49","117334","0.0-46.0-3.0","L2SPAN_2023_45","PRE","","null","","display digit","<div class=""stimulus"">1</div>","null","1,6,1,9,6,1,9,8,6,3,6,2,0","","","1",""
"html-keyboard-response","50","119136","0.0-46.0-4.0","L2SPAN_2023_45","PRE","","null","","display digit","<div class=""stimulus"">9</div>","null","1,6,1,9,6,1,9,8,6,3,6,2,0","","","9",""
"html-keyboard-response","51","120928","0.0-46.0-5.0","L2SPAN_2023_45","PRE","","null","","display digit","<div class=""stimulus"">6</div>","null","1,6,1,9,6,1,9,8,6,3,6,2,0","","","6",""
"html-keyboard-response","52","122720","0.0-46.0-6.0","L2SPAN_2023_45","PRE","","null","","display digit","<div class=""stimulus"">1</div>","null","1,6,1,9,6,1,9,8,6,3,6,2,0","","","1",""
"html-keyboard-response","53","124512","0.0-46.0-7.0","L2SPAN_2023_45","PRE","","null","","display digit","<div class=""stimulus"">9</div>","null","1,6,1,9,6,1,9,8,6,3,6,2,0","","","9",""
"html-keyboard-response","54","126304","0.0-46.0-8.0","L2SPAN_2023_45","PRE","","null","","display digit","<div class=""stimulus"">8</div>","null","1,6,1,9,6,1,9,8,6,3,6,2,0","","","8",""
"html-keyboard-response","55","128096","0.0-46.0-9.0","L2SPAN_2023_45","PRE","","null","","display digit","<div class=""stimulus"">6</div>","null","1,6,1,9,6,1,9,8,6,3,6,2,0","","","6",""
"html-keyboard-response","56","129888","0.0-46.0-10.0","L2SPAN_2023_45","PRE","","null","","display digit","<div class=""stimulus"">3</div>","null","1,6,1,9,6,1,9,8,6,3,6,2,0","","","3",""
"html-keyboard-response","57","131685","0.0-46.0-11.0","L2SPAN_2023_45","PRE","","null","","display digit","<div class=""stimulus"">6</div>","null","1,6,1,9,6,1,9,8,6,3,6,2,0","","","6",""
"html-keyboard-response","58","133488","0.0-46.0-12.0","L2SPAN_2023_45","PRE","","null","","display digit","<div class=""stimulus"">2</div>","null","1,6,1,9,6,1,9,8,6,3,6,2,0","","","2",""
"html-keyboard-response","59","135280","0.0-46.0-13.0","L2SPAN_2023_45","PRE","","null","","display digit","<div class=""stimulus"">0</div>","null","1,6,1,9,6,1,9,8,6,3,6,2,0","","","0",""
"survey-html-form-autofocus","60","138624","0.0-46.0-14.0","L2SPAN_2023_45","PRE","","2679.5999999046326","{""recall"":""20""}","recall","","","1619619863620","20","20","","true"
"html-keyboard-response","61","140096","0.0-46.0-15.0","L2SPAN_2023_45","PRE","","null","","fixation cross","<div class='stimulus'>+</div>","null","","","","",""
"html-keyboard-response","62","141888","0.0-46.0-16.0","L2SPAN_2023_45","PRE","","null","","display digit","<div class=""stimulus"">3</div>","null","3,8,1,7,1,9,4,5,7,6,9","","","3",""
"html-keyboard-response","63","143681","0.0-46.0-17.0","L2SPAN_2023_45","PRE","","null","","display digit","<div class=""stimulus"">8</div>","null","3,8,1,7,1,9,4,5,7,6,9","","","8",""
"html-keyboard-response","64","145487","0.0-46.0-18.0","L2SPAN_2023_45","PRE","","null","","display digit","<div class=""stimulus"">1</div>","null","3,8,1,7,1,9,4,5,7,6,9","","","1",""
"html-keyboard-response","65","147279","0.0-46.0-19.0","L2SPAN_2023_45","PRE","","null","","display digit","<div class=""stimulus"">7</div>","null","3,8,1,7,1,9,4,5,7,6,9","","","7",""
"html-keyboard-response","66","149071","0.0-46.0-20.0","L2SPAN_2023_45","PRE","","null","","display digit","<div class=""stimulus"">1</div>","null","3,8,1,7,1,9,4,5,7,6,9","","","1",""
"html-keyboard-response","67","150862","0.0-46.0-21.0","L2SPAN_2023_45","PRE","","null","","display digit","<div class=""stimulus"">9</div>","null","3,8,1,7,1,9,4,5,7,6,9","","","9",""
"html-keyboard-response","68","152655","0.0-46.0-22.0","L2SPAN_2023_45","PRE","","null","","display digit","<div class=""stimulus"">4</div>","null","3,8,1,7,1,9,4,5,7,6,9","","","4",""
"html-keyboard-response","69","154446","0.0-46.0-23.0","L2SPAN_2023_45","PRE","","null","","display digit","<div class=""stimulus"">5</div>","null","3,8,1,7,1,9,4,5,7,6,9","","","5",""
"html-keyboard-response","70","156239","0.0-46.0-24.0","L2SPAN_2023_45","PRE","","null","","display digit","<div class=""stimulus"">7</div>","null","3,8,1,7,1,9,4,5,7,6,9","","","7",""
"html-keyboard-response","71","158031","0.0-46.0-25.0","L2SPAN_2023_45","PRE","","null","","display digit","<div class=""stimulus"">6</div>","null","3,8,1,7,1,9,4,5,7,6,9","","","6",""
"html-keyboard-response","72","159823","0.0-46.0-26.0","L2SPAN_2023_45","PRE","","null","","display digit","<div class=""stimulus"">9</div>","null","3,8,1,7,1,9,4,5,7,6,9","","","9",""
"survey-html-form-autofocus","73","165437","0.0-46.0-27.0","L2SPAN_2023_45","PRE","","4949.299999952316","{""recall"":""96""}","recall","","","38171945769","96","69","","false"
"html-keyboard-response","74","166911","0.0-46.0-28.0-0.0","L2SPAN_2023_45","PRE","","null","","fixation cross","<div class='stimulus'>+</div>","null","","","","",""
"html-keyboard-response","75","168703","0.0-46.0-28.0-1.0","L2SPAN_2023_45","PRE","","null","","display digit","<div class=""stimulus"">2</div>","null","2,5,2,5,9,4,2,5","","","2",""
"html-keyboard-response","76","170494","0.0-46.0-28.0-2.0","L2SPAN_2023_45","PRE","","null","","display digit","<div class=""stimulus"">5</div>","null","2,5,2,5,9,4,2,5","","","5",""
"html-keyboard-response","77","172286","0.0-46.0-28.0-3.0","L2SPAN_2023_45","PRE","","null","","display digit","<div class=""stimulus"">2</div>","null","2,5,2,5,9,4,2,5","","","2",""
"html-keyboard-response","78","174084","0.0-46.0-28.0-4.0","L2SPAN_2023_45","PRE","","null","","display digit","<div class=""stimulus"">5</div>","null","2,5,2,5,9,4,2,5","","","5",""
"html-keyboard-response","79","175886","0.0-46.0-28.0-5.0","L2SPAN_2023_45","PRE","","null","","display digit","<div class=""stimulus"">9</div>","null","2,5,2,5,9,4,2,5","","","9",""
"html-keyboard-response","80","177678","0.0-46.0-28.0-6.0","L2SPAN_2023_45","PRE","","null","","display digit","<div class=""stimulus"">4</div>","null","2,5,2,5,9,4,2,5","","","4",""
"html-keyboard-response","81","179470","0.0-46.0-28.0-7.0","L2SPAN_2023_45","PRE","","null","","display digit","<div class=""stimulus"">2</div>","null","2,5,2,5,9,4,2,5","","","2",""
"html-keyboard-response","82","181262","0.0-46.0-28.0-8.0","L2SPAN_2023_45","PRE","","null","","display digit","<div class=""stimulus"">5</div>","null","2,5,2,5,9,4,2,5","","","5",""
"survey-html-form-autofocus","83","187173","0.0-46.0-28.0-9.0","L2SPAN_2023_45","PRE","","5246.600000143051","{""recall"":""425""}","recall","","","25259425","425","425","","true"
"html-keyboard-response","84","188643","0.0-46.0-28.0-10.0","L2SPAN_2023_45","PRE","","null","","fixation cross","<div class='stimulus'>+</div>","null","","","","",""
"html-keyboard-response","85","190446","0.0-46.0-28.0-11.0","L2SPAN_2023_45","PRE","","null","","display digit","<div class=""stimulus"">8</div>","null","8,9,0,6,8,1,6","","","8",""
"html-keyboard-response","86","192238","0.0-46.0-28.0-12.0","L2SPAN_2023_45","PRE","","null","","display digit","<div class=""stimulus"">9</div>","null","8,9,0,6,8,1,6","","","9",""
"html-keyboard-response","87","194030","0.0-46.0-28.0-13.0","L2SPAN_2023_45","PRE","","null","","display digit","<div class=""stimulus"">0</div>","null","8,9,0,6,8,1,6","","","0",""
"html-keyboard-response","88","195822","0.0-46.0-28.0-14.0","L2SPAN_2023_45","PRE","","null","","display digit","<div class=""stimulus"">6</div>","null","8,9,0,6,8,1,6","","","6",""
"html-keyboard-response","89","197613","0.0-46.0-28.0-15.0","L2SPAN_2023_45","PRE","","null","","display digit","<div class=""stimulus"">8</div>","null","8,9,0,6,8,1,6","","","8",""
"html-keyboard-response","90","199405","0.0-46.0-28.0-16.0","L2SPAN_2023_45","PRE","","null","","display digit","<div class=""stimulus"">1</div>","null","8,9,0,6,8,1,6","","","1",""
"html-keyboard-response","91","201197","0.0-46.0-28.0-17.0","L2SPAN_2023_45","PRE","","null","","display digit","<div class=""stimulus"">6</div>","null","8,9,0,6,8,1,6","","","6",""
"survey-html-form-autofocus","92","206293","0.0-46.0-28.0-18.0","L2SPAN_2023_45","PRE","","4431","{""recall"":""816""}","recall","","","8906816","816","816","","true"
"html-keyboard-response","93","207763","0.0-46.0-28.0-19.0-0.0","L2SPAN_2023_45","PRE","","null","","fixation cross","<div class='stimulus'>+</div>","null","","","","",""
"html-keyboard-response","94","209565","0.0-46.0-28.0-19.0-1.0","L2SPAN_2023_45","PRE","","null","","display digit","<div class=""stimulus"">3</div>","null","3,4,1,2","","","3",""
"html-keyboard-response","95","211357","0.0-46.0-28.0-19.0-2.0","L2SPAN_2023_45","PRE","","null","","display digit","<div class=""stimulus"">4</div>","null","3,4,1,2","","","4",""
"html-keyboard-response","96","213154","0.0-46.0-28.0-19.0-3.0","L2SPAN_2023_45","PRE","","null","","display digit","<div class=""stimulus"">1</div>","null","3,4,1,2","","","1",""
"html-keyboard-response","97","214957","0.0-46.0-28.0-19.0-4.0","L2SPAN_2023_45","PRE","","null","","display digit","<div class=""stimulus"">2</div>","null","3,4,1,2","","","2",""
"survey-html-form-autofocus","98","220114","0.0-46.0-28.0-19.0-5.0","L2SPAN_2023_45","PRE","","4489","{""recall"":""3412""}","recall","","","3412","3412","3412","","true"
"html-keyboard-response","99","221586","0.0-46.0-28.0-19.0-6.0","L2SPAN_2023_45","PRE","","null","","fixation cross","<div class='stimulus'>+</div>","null","","","","",""
"html-keyboard-response","100","223388","0.0-46.0-28.0-19.0-7.0","L2SPAN_2023_45","PRE","","null","","display digit","<div class=""stimulus"">1</div>","null","1,7,8,6","","","1",""
"html-keyboard-response","101","225180","0.0-46.0-28.0-19.0-8.0","L2SPAN_2023_45","PRE","","null","","display digit","<div class=""stimulus"">7</div>","null","1,7,8,6","","","7",""
"html-keyboard-response","102","226972","0.0-46.0-28.0-19.0-9.0","L2SPAN_2023_45","PRE","","null","","display digit","<div class=""stimulus"">8</div>","null","1,7,8,6","","","8",""
"html-keyboard-response","103","228764","0.0-46.0-28.0-19.0-10.0","L2SPAN_2023_45","PRE","","null","","display digit","<div class=""stimulus"">6</div>","null","1,7,8,6","","","6",""
"survey-html-form-autofocus","104","233407","0.0-46.0-28.0-19.0-11.0","L2SPAN_2023_45","PRE","","3977.7999999523163","{""recall"":""1786""}","recall","","","1786","1786","1786","","true"
"html-keyboard-response","105","234881","0.0-46.0-28.0-19.0-12.0-0.0","L2SPAN_2023_45","PRE","","null","","fixation cross","<div class='stimulus'>+</div>","null","","","","",""
"html-keyboard-response","106","236684","0.0-46.0-28.0-19.0-12.0-1.0","L2SPAN_2023_45","PRE","","null","","display digit","<div class=""stimulus"">1</div>","null","1,9,5,3,4,6,7,0,1,8","","","1",""
"html-keyboard-response","107","238476","0.0-46.0-28.0-19.0-12.0-2.0","L2SPAN_2023_45","PRE","","null","","display digit","<div class=""stimulus"">9</div>","null","1,9,5,3,4,6,7,0,1,8","","","9",""
"html-keyboard-response","108","240268","0.0-46.0-28.0-19.0-12.0-3.0","L2SPAN_2023_45","PRE","","null","","display digit","<div class=""stimulus"">5</div>","null","1,9,5,3,4,6,7,0,1,8","","","5",""
"html-keyboard-response","109","242060","0.0-46.0-28.0-19.0-12.0-4.0","L2SPAN_2023_45","PRE","","null","","display digit","<div class=""stimulus"">3</div>","null","1,9,5,3,4,6,7,0,1,8","","","3",""
"html-keyboard-response","110","243852","0.0-46.0-28.0-19.0-12.0-5.0","L2SPAN_2023_45","PRE","","null","","display digit","<div class=""stimulus"">4</div>","null","1,9,5,3,4,6,7,0,1,8","","","4",""
"html-keyboard-response","111","245644","0.0-46.0-28.0-19.0-12.0-6.0","L2SPAN_2023_45","PRE","","null","","display digit","<div class=""stimulus"">6</div>","null","1,9,5,3,4,6,7,0,1,8","","","6",""
"html-keyboard-response","112","247436","0.0-46.0-28.0-19.0-12.0-7.0","L2SPAN_2023_45","PRE","","null","","display digit","<div class=""stimulus"">7</div>","null","1,9,5,3,4,6,7,0,1,8","","","7",""
"html-keyboard-response","113","249228","0.0-46.0-28.0-19.0-12.0-8.0","L2SPAN_2023_45","PRE","","null","","display digit","<div class=""stimulus"">0</div>","null","1,9,5,3,4,6,7,0,1,8","","","0",""
"html-keyboard-response","114","251020","0.0-46.0-28.0-19.0-12.0-9.0","L2SPAN_2023_45","PRE","","null","","display digit","<div class=""stimulus"">1</div>","null","1,9,5,3,4,6,7,0,1,8","","","1",""
"html-keyboard-response","115","252811","0.0-46.0-28.0-19.0-12.0-10.0","L2SPAN_2023_45","PRE","","null","","display digit","<div class=""stimulus"">8</div>","null","1,9,5,3,4,6,7,0,1,8","","","8",""
"survey-html-form-autofocus","116","260761","0.0-46.0-28.0-19.0-12.0-11.0","L2SPAN_2023_45","PRE","","7284.799999952316","{""recall"":""67018""}","recall","","","1953467018","67018","67018","","true"
"html-keyboard-response","117","262234","0.0-46.0-28.0-19.0-12.0-12.0","L2SPAN_2023_45","PRE","","null","","fixation cross","<div class='stimulus'>+</div>","null","","","","",""
"html-keyboard-response","118","264032","0.0-46.0-28.0-19.0-12.0-13.0","L2SPAN_2023_45","PRE","","null","","display digit","<div class=""stimulus"">7</div>","null","7,6,3,7,0,4,9,2,5,9,5,1,0","","","7",""
"html-keyboard-response","119","265835","0.0-46.0-28.0-19.0-12.0-14.0","L2SPAN_2023_45","PRE","","null","","display digit","<div class=""stimulus"">6</div>","null","7,6,3,7,0,4,9,2,5,9,5,1,0","","","6",""
"html-keyboard-response","120","267627","0.0-46.0-28.0-19.0-12.0-15.0","L2SPAN_2023_45","PRE","","null","","display digit","<div class=""stimulus"">3</div>","null","7,6,3,7,0,4,9,2,5,9,5,1,0","","","3",""
"html-keyboard-response","121","269419","0.0-46.0-28.0-19.0-12.0-16.0","L2SPAN_2023_45","PRE","","null","","display digit","<div class=""stimulus"">7</div>","null","7,6,3,7,0,4,9,2,5,9,5,1,0","","","7",""
"html-keyboard-response","122","271210","0.0-46.0-28.0-19.0-12.0-17.0","L2SPAN_2023_45","PRE","","null","","display digit","<div class=""stimulus"">0</div>","null","7,6,3,7,0,4,9,2,5,9,5,1,0","","","0",""
"html-keyboard-response","123","273003","0.0-46.0-28.0-19.0-12.0-18.0","L2SPAN_2023_45","PRE","","null","","display digit","<div class=""stimulus"">4</div>","null","7,6,3,7,0,4,9,2,5,9,5,1,0","","","4",""
"html-keyboard-response","124","274794","0.0-46.0-28.0-19.0-12.0-19.0","L2SPAN_2023_45","PRE","","null","","display digit","<div class=""stimulus"">9</div>","null","7,6,3,7,0,4,9,2,5,9,5,1,0","","","9",""
"html-keyboard-response","125","276586","0.0-46.0-28.0-19.0-12.0-20.0","L2SPAN_2023_45","PRE","","null","","display digit","<div class=""stimulus"">2</div>","null","7,6,3,7,0,4,9,2,5,9,5,1,0","","","2",""
"html-keyboard-response","126","278378","0.0-46.0-28.0-19.0-12.0-21.0","L2SPAN_2023_45","PRE","","null","","display digit","<div class=""stimulus"">5</div>","null","7,6,3,7,0,4,9,2,5,9,5,1,0","","","5",""
"html-keyboard-response","127","280170","0.0-46.0-28.0-19.0-12.0-22.0","L2SPAN_2023_45","PRE","","null","","display digit","<div class=""stimulus"">9</div>","null","7,6,3,7,0,4,9,2,5,9,5,1,0","","","9",""
"html-keyboard-response","128","281969","0.0-46.0-28.0-19.0-12.0-23.0","L2SPAN_2023_45","PRE","","null","","display digit","<div class=""stimulus"">5</div>","null","7,6,3,7,0,4,9,2,5,9,5,1,0","","","5",""
"html-keyboard-response","129","283770","0.0-46.0-28.0-19.0-12.0-24.0","L2SPAN_2023_45","PRE","","null","","display digit","<div class=""stimulus"">1</div>","null","7,6,3,7,0,4,9,2,5,9,5,1,0","","","1",""
"html-keyboard-response","130","285562","0.0-46.0-28.0-19.0-12.0-25.0","L2SPAN_2023_45","PRE","","null","","display digit","<div class=""stimulus"">0</div>","null","7,6,3,7,0,4,9,2,5,9,5,1,0","","","0",""
"survey-html-form-autofocus","131","294188","0.0-46.0-28.0-19.0-12.0-26.0","L2SPAN_2023_45","PRE","","7961.299999952316","{""recall"":""29510""}","recall","","","7637049259510","29510","59510","","false"
"html-keyboard-response","132","295663","0.0-46.0-28.0-19.0-12.0-27.0-0.0","L2SPAN_2023_45","PRE","","null","","fixation cross","<div class='stimulus'>+</div>","null","","","","",""
"html-keyboard-response","133","297456","0.0-46.0-28.0-19.0-12.0-27.0-1.0","L2SPAN_2023_45","PRE","","null","","display digit","<div class=""stimulus"">6</div>","null","6,3,7,3,4,8,2,7,5,4,9,4,3","","","6",""
"html-keyboard-response","134","299258","0.0-46.0-28.0-19.0-12.0-27.0-2.0","L2SPAN_2023_45","PRE","","null","","display digit","<div class=""stimulus"">3</div>","null","6,3,7,3,4,8,2,7,5,4,9,4,3","","","3",""
"html-keyboard-response","135","301066","0.0-46.0-28.0-19.0-12.0-27.0-3.0","L2SPAN_2023_45","PRE","","null","","display digit","<div class=""stimulus"">7</div>","null","6,3,7,3,4,8,2,7,5,4,9,4,3","","","7",""
"html-keyboard-response","136","302858","0.0-46.0-28.0-19.0-12.0-27.0-4.0","L2SPAN_2023_45","PRE","","null","","display digit","<div class=""stimulus"">3</div>","null","6,3,7,3,4,8,2,7,5,4,9,4,3","","","3",""
"html-keyboard-response","137","304649","0.0-46.0-28.0-19.0-12.0-27.0-5.0","L2SPAN_2023_45","PRE","","null","","display digit","<div class=""stimulus"">4</div>","null","6,3,7,3,4,8,2,7,5,4,9,4,3","","","4",""
"html-keyboard-response","138","306441","0.0-46.0-28.0-19.0-12.0-27.0-6.0","L2SPAN_2023_45","PRE","","null","","display digit","<div class=""stimulus"">8</div>","null","6,3,7,3,4,8,2,7,5,4,9,4,3","","","8",""
"html-keyboard-response","139","308233","0.0-46.0-28.0-19.0-12.0-27.0-7.0","L2SPAN_2023_45","PRE","","null","","display digit","<div class=""stimulus"">2</div>","null","6,3,7,3,4,8,2,7,5,4,9,4,3","","","2",""
"html-keyboard-response","140","310025","0.0-46.0-28.0-19.0-12.0-27.0-8.0","L2SPAN_2023_45","PRE","","null","","display digit","<div class=""stimulus"">7</div>","null","6,3,7,3,4,8,2,7,5,4,9,4,3","","","7",""
"html-keyboard-response","141","311817","0.0-46.0-28.0-19.0-12.0-27.0-9.0","L2SPAN_2023_45","PRE","","null","","display digit","<div class=""stimulus"">5</div>","null","6,3,7,3,4,8,2,7,5,4,9,4,3","","","5",""
"html-keyboard-response","142","313608","0.0-46.0-28.0-19.0-12.0-27.0-10.0","L2SPAN_2023_45","PRE","","null","","display digit","<div class=""stimulus"">4</div>","null","6,3,7,3,4,8,2,7,5,4,9,4,3","","","4",""
"html-keyboard-response","143","315401","0.0-46.0-28.0-19.0-12.0-27.0-11.0","L2SPAN_2023_45","PRE","","null","","display digit","<div class=""stimulus"">9</div>","null","6,3,7,3,4,8,2,7,5,4,9,4,3","","","9",""
"html-keyboard-response","144","317193","0.0-46.0-28.0-19.0-12.0-27.0-12.0","L2SPAN_2023_45","PRE","","null","","display digit","<div class=""stimulus"">4</div>","null","6,3,7,3,4,8,2,7,5,4,9,4,3","","","4",""
"html-keyboard-response","145","318985","0.0-46.0-28.0-19.0-12.0-27.0-13.0","L2SPAN_2023_45","PRE","","null","","display digit","<div class=""stimulus"">3</div>","null","6,3,7,3,4,8,2,7,5,4,9,4,3","","","3",""
"survey-html-form-autofocus","146","333824","0.0-46.0-28.0-19.0-12.0-27.0-14.0","L2SPAN_2023_45","PRE","","14173.5","{""recall"":""254943""}","recall","","","6373482754943","254943","754943","","false"
"html-keyboard-response","147","335294","0.0-46.0-28.0-19.0-12.0-27.0-15.0","L2SPAN_2023_45","PRE","","null","","fixation cross","<div class='stimulus'>+</div>","null","","","","",""
"html-keyboard-response","148","337096","0.0-46.0-28.0-19.0-12.0-27.0-16.0","L2SPAN_2023_45","PRE","","null","","display digit","<div class=""stimulus"">0</div>","null","0,9,2,3,7,4,5","","","0",""
"html-keyboard-response","149","338888","0.0-46.0-28.0-19.0-12.0-27.0-17.0","L2SPAN_2023_45","PRE","","null","","display digit","<div class=""stimulus"">9</div>","null","0,9,2,3,7,4,5","","","9",""
"html-keyboard-response","150","340680","0.0-46.0-28.0-19.0-12.0-27.0-18.0","L2SPAN_2023_45","PRE","","null","","display digit","<div class=""stimulus"">2</div>","null","0,9,2,3,7,4,5","","","2",""
"html-keyboard-response","151","342472","0.0-46.0-28.0-19.0-12.0-27.0-19.0","L2SPAN_2023_45","PRE","","null","","display digit","<div class=""stimulus"">3</div>","null","0,9,2,3,7,4,5","","","3",""
"html-keyboard-response","152","344270","0.0-46.0-28.0-19.0-12.0-27.0-20.0","L2SPAN_2023_45","PRE","","null","","display digit","<div class=""stimulus"">7</div>","null","0,9,2,3,7,4,5","","","7",""
"html-keyboard-response","153","346072","0.0-46.0-28.0-19.0-12.0-27.0-21.0","L2SPAN_2023_45","PRE","","null","","display digit","<div class=""stimulus"">4</div>","null","0,9,2,3,7,4,5","","","4",""
"html-keyboard-response","154","347864","0.0-46.0-28.0-19.0-12.0-27.0-22.0","L2SPAN_2023_45","PRE","","null","","display digit","<div class=""stimulus"">5</div>","null","0,9,2,3,7,4,5","","","5",""
"survey-html-form-autofocus","155","359308","0.0-46.0-28.0-19.0-12.0-27.0-23.0","L2SPAN_2023_45","PRE","","10780.399999856949","{""recall"":""923745""}","recall","","","0923745","923745","923745","","true"
"html-keyboard-response","156","360781","0.0-46.0-28.0-19.0-12.0-27.0-24.0-0.0","L2SPAN_2023_45","PRE","","null","","fixation cross","<div class='stimulus'>+</div>","null","","","","",""
"html-keyboard-response","157","362583","0.0-46.0-28.0-19.0-12.0-27.0-24.0-1.0","L2SPAN_2023_45","PRE","","null","","display digit","<div class=""stimulus"">3</div>","null","3,5,3,6,3,8,6","","","3",""
"html-keyboard-response","158","364375","0.0-46.0-28.0-19.0-12.0-27.0-24.0-2.0","L2SPAN_2023_45","PRE","","null","","display digit","<div class=""stimulus"">5</div>","null","3,5,3,6,3,8,6","","","5",""
"html-keyboard-response","159","366167","0.0-46.0-28.0-19.0-12.0-27.0-24.0-3.0","L2SPAN_2023_45","PRE","","null","","display digit","<div class=""stimulus"">3</div>","null","3,5,3,6,3,8,6","","","3",""
"html-keyboard-response","160","367959","0.0-46.0-28.0-19.0-12.0-27.0-24.0-4.0","L2SPAN_2023_45","PRE","","null","","display digit","<div class=""stimulus"">6</div>","null","3,5,3,6,3,8,6","","","6",""
"html-keyboard-response","161","369751","0.0-46.0-28.0-19.0-12.0-27.0-24.0-5.0","L2SPAN_2023_45","PRE","","null","","display digit","<div class=""stimulus"">3</div>","null","3,5,3,6,3,8,6","","","3",""
"html-keyboard-response","162","371543","0.0-46.0-28.0-19.0-12.0-27.0-24.0-6.0","L2SPAN_2023_45","PRE","","null","","display digit","<div class=""stimulus"">8</div>","null","3,5,3,6,3,8,6","","","8",""
"html-keyboard-response","163","373335","0.0-46.0-28.0-19.0-12.0-27.0-24.0-7.0","L2SPAN_2023_45","PRE","","null","","display digit","<div class=""stimulus"">6</div>","null","3,5,3,6,3,8,6","","","6",""
"survey-html-form-autofocus","164","384298","0.0-46.0-28.0-19.0-12.0-27.0-24.0-8.0","L2SPAN_2023_45","PRE","","10299","{""recall"":""5336836""}","recall","","","3536386","5336836","3536386","","false"
"html-keyboard-response","165","385772","0.0-46.0-28.0-19.0-12.0-27.0-24.0-9.0","L2SPAN_2023_45","PRE","","null","","fixation cross","<div class='stimulus'>+</div>","null","","","","",""
"html-keyboard-response","166","387573","0.0-46.0-28.0-19.0-12.0-27.0-24.0-10.0","L2SPAN_2023_45","PRE","","null","","display digit","<div class=""stimulus"">0</div>","null","0,1,2,6,9,5,8,6,2,1,6","","","0",""
"html-keyboard-response","167","389366","0.0-46.0-28.0-19.0-12.0-27.0-24.0-11.0","L2SPAN_2023_45","PRE","","null","","display digit","<div class=""stimulus"">1</div>","null","0,1,2,6,9,5,8,6,2,1,6","","","1",""
"html-keyboard-response","168","391158","0.0-46.0-28.0-19.0-12.0-27.0-24.0-12.0","L2SPAN_2023_45","PRE","","null","","display digit","<div class=""stimulus"">2</div>","null","0,1,2,6,9,5,8,6,2,1,6","","","2",""
"html-keyboard-response","169","392952","0.0-46.0-28.0-19.0-12.0-27.0-24.0-13.0","L2SPAN_2023_45","PRE","","null","","display digit","<div class=""stimulus"">6</div>","null","0,1,2,6,9,5,8,6,2,1,6","","","6",""
"html-keyboard-response","170","394758","0.0-46.0-28.0-19.0-12.0-27.0-24.0-14.0","L2SPAN_2023_45","PRE","","null","","display digit","<div class=""stimulus"">9</div>","null","0,1,2,6,9,5,8,6,2,1,6","","","9",""
"html-keyboard-response","171","396549","0.0-46.0-28.0-19.0-12.0-27.0-24.0-15.0","L2SPAN_2023_45","PRE","","null","","display digit","<div class=""stimulus"">5</div>","null","0,1,2,6,9,5,8,6,2,1,6","","","5",""
"html-keyboard-response","172","398342","0.0-46.0-28.0-19.0-12.0-27.0-24.0-16.0","L2SPAN_2023_45","PRE","","null","","display digit","<div class=""stimulus"">8</div>","null","0,1,2,6,9,5,8,6,2,1,6","","","8",""
"html-keyboard-response","173","400134","0.0-46.0-28.0-19.0-12.0-27.0-24.0-17.0","L2SPAN_2023_45","PRE","","null","","display digit","<div class=""stimulus"">6</div>","null","0,1,2,6,9,5,8,6,2,1,6","","","6",""
"html-keyboard-response","174","401925","0.0-46.0-28.0-19.0-12.0-27.0-24.0-18.0","L2SPAN_2023_45","PRE","","null","","display digit","<div class=""stimulus"">2</div>","null","0,1,2,6,9,5,8,6,2,1,6","","","2",""
"html-keyboard-response","175","403718","0.0-46.0-28.0-19.0-12.0-27.0-24.0-19.0","L2SPAN_2023_45","PRE","","null","","display digit","<div class=""stimulus"">1</div>","null","0,1,2,6,9,5,8,6,2,1,6","","","1",""
"html-keyboard-response","176","405510","0.0-46.0-28.0-19.0-12.0-27.0-24.0-20.0","L2SPAN_2023_45","PRE","","null","","display digit","<div class=""stimulus"">6</div>","null","0,1,2,6,9,5,8,6,2,1,6","","","6",""
"survey-html-form-autofocus","177","420021","0.0-46.0-28.0-19.0-12.0-27.0-24.0-21.0","L2SPAN_2023_45","PRE","","13847.100000143051","{""recall"":""586126""}","recall","","","01269586216","586126","9586216","","false"
"html-keyboard-response","178","424240","0.0-47.0","L2SPAN_2023_45","PRE","","3555.5999999046326","","","<p>End of the experiment.<br/>			   		You reached level 7 and your					total score is 9.</p>					<p class=""important"">PRESS SPACE TO FINISH THE EXPERIMENT.</p>","32","","","","",""
"fullscreen","179","425270","0.0-48.0","L2SPAN_2023_45","PRE","true","","","","","","","","","",""
