"trial_type","trial_index","time_elapsed","internal_node_id","userID","sessionType","success","rt","responses","stage","stimulus","key_press","sequence","recall","sequence_last_digits","digit","correct"
"pavlovia","0","7","0.0-0.0","L2SPAN_2023_02","PRE","","","","","","","","","","",""
"fullscreen","1","5044","0.0-1.0","L2SPAN_2023_02","PRE","true","","","","","","","","","",""
"survey-html-form","2","10484","0.0-2.0","L2SPAN_2023_02","PRE","","4774.699999988079","{""userID"":""L2SPAN_2023_02"",""type"":""PRE""}","userID","","","","","","",""
"html-keyboard-response","3","20606","0.0-3.0","L2SPAN_2023_02","PRE","","9453.699999988079","","","<p>Welcome to this task.</p>			<p>You will see a set of numbers, presented one at a time.<br/>			You need to pay attention to the numbers in the list and their order.<br/>			The list will end abruptly at any time. You will be told to enter the LAST X number of digits.</p>			<p>[Press SPACE to practice]</p>","32","","","","",""
"html-keyboard-response","4","21426","0.0-4.0","L2SPAN_2023_02","PRE","","null","","fixation cross","<div class='stimulus'>+</div>","null","","","","",""
"html-keyboard-response","5","23221","0.0-5.0","L2SPAN_2023_02","PRE","","null","","practice display digit","<div class=""stimulus"">9</div>","null","9,8,3","","","",""
"html-keyboard-response","6","25019","0.0-6.0","L2SPAN_2023_02","PRE","","null","","practice display digit","<div class=""stimulus"">8</div>","null","9,8,3","","","",""
"html-keyboard-response","7","26822","0.0-7.0","L2SPAN_2023_02","PRE","","null","","practice display digit","<div class=""stimulus"">3</div>","null","9,8,3","","","",""
"survey-html-form-autofocus","8","38049","0.0-8.0","L2SPAN_2023_02","PRE","","10550.600000023842","{""recall"":""83""}","practice recall","","","983","","83","",""
"html-keyboard-response","9","39709","0.0-9.0","L2SPAN_2023_02","PRE","","988.8999999761581","","","<span class='correct'>Perfect!</span><br/>Press SPACE to continue.","32","","","","",""
"html-keyboard-response","10","40534","0.0-10.0","L2SPAN_2023_02","PRE","","null","","fixation cross","<div class='stimulus'>+</div>","null","","","","",""
"html-keyboard-response","11","42338","0.0-11.0","L2SPAN_2023_02","PRE","","null","","practice display digit","<div class=""stimulus"">4</div>","null","4,8,2,1,9","","","",""
"html-keyboard-response","12","44143","0.0-12.0","L2SPAN_2023_02","PRE","","null","","practice display digit","<div class=""stimulus"">8</div>","null","4,8,2,1,9","","","",""
"html-keyboard-response","13","45948","0.0-13.0","L2SPAN_2023_02","PRE","","null","","practice display digit","<div class=""stimulus"">2</div>","null","4,8,2,1,9","","","",""
"html-keyboard-response","14","47743","0.0-14.0","L2SPAN_2023_02","PRE","","null","","practice display digit","<div class=""stimulus"">1</div>","null","4,8,2,1,9","","","",""
"html-keyboard-response","15","49550","0.0-15.0","L2SPAN_2023_02","PRE","","null","","practice display digit","<div class=""stimulus"">9</div>","null","4,8,2,1,9","","","",""
"survey-html-form-autofocus","16","52869","0.0-16.0","L2SPAN_2023_02","PRE","","2648.300000011921","{""recall"":""219""}","practice recall","","","48219","","219","",""
"html-keyboard-response","17","55014","0.0-17.0","L2SPAN_2023_02","PRE","","1471.5999999642372","","","<span class='correct'>Perfect!</span><br/>Press SPACE to continue.","32","","","","",""
"html-keyboard-response","18","55839","0.0-18.0","L2SPAN_2023_02","PRE","","null","","fixation cross","<div class='stimulus'>+</div>","null","","","","",""
"html-keyboard-response","19","57638","0.0-19.0","L2SPAN_2023_02","PRE","","null","","practice display digit","<div class=""stimulus"">5</div>","null","5,7,1,9,4,2,3,6","","","",""
"html-keyboard-response","20","59447","0.0-20.0","L2SPAN_2023_02","PRE","","null","","practice display digit","<div class=""stimulus"">7</div>","null","5,7,1,9,4,2,3,6","","","",""
"html-keyboard-response","21","61254","0.0-21.0","L2SPAN_2023_02","PRE","","null","","practice display digit","<div class=""stimulus"">1</div>","null","5,7,1,9,4,2,3,6","","","",""
"html-keyboard-response","22","63063","0.0-22.0","L2SPAN_2023_02","PRE","","null","","practice display digit","<div class=""stimulus"">9</div>","null","5,7,1,9,4,2,3,6","","","",""
"html-keyboard-response","23","64869","0.0-23.0","L2SPAN_2023_02","PRE","","null","","practice display digit","<div class=""stimulus"">4</div>","null","5,7,1,9,4,2,3,6","","","",""
"html-keyboard-response","24","66674","0.0-24.0","L2SPAN_2023_02","PRE","","null","","practice display digit","<div class=""stimulus"">2</div>","null","5,7,1,9,4,2,3,6","","","",""
"html-keyboard-response","25","68479","0.0-25.0","L2SPAN_2023_02","PRE","","null","","practice display digit","<div class=""stimulus"">3</div>","null","5,7,1,9,4,2,3,6","","","",""
"html-keyboard-response","26","70283","0.0-26.0","L2SPAN_2023_02","PRE","","null","","practice display digit","<div class=""stimulus"">6</div>","null","5,7,1,9,4,2,3,6","","","",""
"survey-html-form-autofocus","27","77886","0.0-27.0","L2SPAN_2023_02","PRE","","6932.800000011921","{""recall"":""4236""}","practice recall","","","57194236","","4236","",""
"html-keyboard-response","28","79599","0.0-28.0","L2SPAN_2023_02","PRE","","1043.199999988079","","","<span class='correct'>Perfect!</span><br/>Press SPACE to continue.","32","","","","",""
"html-keyboard-response","29","84283","0.0-29.0","L2SPAN_2023_02","PRE","","4672.600000023842","","","<p>That was the practice section.<br/>			<p>Now goes the official part of the task.<br/>			You won't be given any feedback on your performance.</p>			<p>R U ready?</p>			<p>[Press Y to begin]</p>","89","","","","",""
"html-keyboard-response","30","85757","0.0-30.0","L2SPAN_2023_02","PRE","","null","","fixation cross","<div class='stimulus'>+</div>","null","","","","",""
"html-keyboard-response","31","87564","0.0-31.0","L2SPAN_2023_02","PRE","","null","","display digit","<div class=""stimulus"">0</div>","null","0,1","","","0",""
"html-keyboard-response","32","89367","0.0-32.0","L2SPAN_2023_02","PRE","","null","","display digit","<div class=""stimulus"">1</div>","null","0,1","","","1",""
"survey-html-form-autofocus","33","93128","0.0-33.0","L2SPAN_2023_02","PRE","","3087.400000035763","{""recall"":""1""}","recall","","","01","1","1","","true"
"html-keyboard-response","34","94606","0.0-34.0","L2SPAN_2023_02","PRE","","null","","fixation cross","<div class='stimulus'>+</div>","null","","","","",""
"html-keyboard-response","35","96403","0.0-35.0","L2SPAN_2023_02","PRE","","null","","display digit","<div class=""stimulus"">6</div>","null","6,8,3,1,6,5,4,5,3","","","6",""
"html-keyboard-response","36","98204","0.0-36.0","L2SPAN_2023_02","PRE","","null","","display digit","<div class=""stimulus"">8</div>","null","6,8,3,1,6,5,4,5,3","","","8",""
"html-keyboard-response","37","100007","0.0-37.0","L2SPAN_2023_02","PRE","","null","","display digit","<div class=""stimulus"">3</div>","null","6,8,3,1,6,5,4,5,3","","","3",""
"html-keyboard-response","38","101806","0.0-38.0","L2SPAN_2023_02","PRE","","null","","display digit","<div class=""stimulus"">1</div>","null","6,8,3,1,6,5,4,5,3","","","1",""
"html-keyboard-response","39","103614","0.0-39.0","L2SPAN_2023_02","PRE","","null","","display digit","<div class=""stimulus"">6</div>","null","6,8,3,1,6,5,4,5,3","","","6",""
"html-keyboard-response","40","105422","0.0-40.0","L2SPAN_2023_02","PRE","","null","","display digit","<div class=""stimulus"">5</div>","null","6,8,3,1,6,5,4,5,3","","","5",""
"html-keyboard-response","41","107230","0.0-41.0","L2SPAN_2023_02","PRE","","null","","display digit","<div class=""stimulus"">4</div>","null","6,8,3,1,6,5,4,5,3","","","4",""
"html-keyboard-response","42","109028","0.0-42.0","L2SPAN_2023_02","PRE","","null","","display digit","<div class=""stimulus"">5</div>","null","6,8,3,1,6,5,4,5,3","","","5",""
"html-keyboard-response","43","110829","0.0-43.0","L2SPAN_2023_02","PRE","","null","","display digit","<div class=""stimulus"">3</div>","null","6,8,3,1,6,5,4,5,3","","","3",""
"survey-html-form-autofocus","44","114441","0.0-44.0","L2SPAN_2023_02","PRE","","2936.5","{""recall"":""3""}","recall","","","683165453","3","3","","true"
"html-keyboard-response","45","115916","0.0-45.0-0.0","L2SPAN_2023_02","PRE","","null","","fixation cross","<div class='stimulus'>+</div>","null","","","","",""
"html-keyboard-response","46","117710","0.0-45.0-1.0","L2SPAN_2023_02","PRE","","null","","display digit","<div class=""stimulus"">3</div>","null","3,1,0,4,0,9,7,6,1,5,3,1","","","3",""
"html-keyboard-response","47","119510","0.0-45.0-2.0","L2SPAN_2023_02","PRE","","null","","display digit","<div class=""stimulus"">1</div>","null","3,1,0,4,0,9,7,6,1,5,3,1","","","1",""
"html-keyboard-response","48","121310","0.0-45.0-3.0","L2SPAN_2023_02","PRE","","null","","display digit","<div class=""stimulus"">0</div>","null","3,1,0,4,0,9,7,6,1,5,3,1","","","0",""
"html-keyboard-response","49","123118","0.0-45.0-4.0","L2SPAN_2023_02","PRE","","null","","display digit","<div class=""stimulus"">4</div>","null","3,1,0,4,0,9,7,6,1,5,3,1","","","4",""
"html-keyboard-response","50","124926","0.0-45.0-5.0","L2SPAN_2023_02","PRE","","null","","display digit","<div class=""stimulus"">0</div>","null","3,1,0,4,0,9,7,6,1,5,3,1","","","0",""
"html-keyboard-response","51","126734","0.0-45.0-6.0","L2SPAN_2023_02","PRE","","null","","display digit","<div class=""stimulus"">9</div>","null","3,1,0,4,0,9,7,6,1,5,3,1","","","9",""
"html-keyboard-response","52","128542","0.0-45.0-7.0","L2SPAN_2023_02","PRE","","null","","display digit","<div class=""stimulus"">7</div>","null","3,1,0,4,0,9,7,6,1,5,3,1","","","7",""
"html-keyboard-response","53","130350","0.0-45.0-8.0","L2SPAN_2023_02","PRE","","null","","display digit","<div class=""stimulus"">6</div>","null","3,1,0,4,0,9,7,6,1,5,3,1","","","6",""
"html-keyboard-response","54","132158","0.0-45.0-9.0","L2SPAN_2023_02","PRE","","null","","display digit","<div class=""stimulus"">1</div>","null","3,1,0,4,0,9,7,6,1,5,3,1","","","1",""
"html-keyboard-response","55","133966","0.0-45.0-10.0","L2SPAN_2023_02","PRE","","null","","display digit","<div class=""stimulus"">5</div>","null","3,1,0,4,0,9,7,6,1,5,3,1","","","5",""
"html-keyboard-response","56","135774","0.0-45.0-11.0","L2SPAN_2023_02","PRE","","null","","display digit","<div class=""stimulus"">3</div>","null","3,1,0,4,0,9,7,6,1,5,3,1","","","3",""
"html-keyboard-response","57","137579","0.0-45.0-12.0","L2SPAN_2023_02","PRE","","null","","display digit","<div class=""stimulus"">1</div>","null","3,1,0,4,0,9,7,6,1,5,3,1","","","1",""
"survey-html-form-autofocus","58","141234","0.0-45.0-13.0","L2SPAN_2023_02","PRE","","2985.199999988079","{""recall"":""31""}","recall","","","310409761531","31","31","","true"
"html-keyboard-response","59","142710","0.0-45.0-14.0","L2SPAN_2023_02","PRE","","null","","fixation cross","<div class='stimulus'>+</div>","null","","","","",""
"html-keyboard-response","60","144508","0.0-45.0-15.0","L2SPAN_2023_02","PRE","","null","","display digit","<div class=""stimulus"">9</div>","null","9,3,5,7,6,9","","","9",""
"html-keyboard-response","61","146319","0.0-45.0-16.0","L2SPAN_2023_02","PRE","","null","","display digit","<div class=""stimulus"">3</div>","null","9,3,5,7,6,9","","","3",""
"html-keyboard-response","62","148119","0.0-45.0-17.0","L2SPAN_2023_02","PRE","","null","","display digit","<div class=""stimulus"">5</div>","null","9,3,5,7,6,9","","","5",""
"html-keyboard-response","63","149927","0.0-45.0-18.0","L2SPAN_2023_02","PRE","","null","","display digit","<div class=""stimulus"">7</div>","null","9,3,5,7,6,9","","","7",""
"html-keyboard-response","64","151734","0.0-45.0-19.0","L2SPAN_2023_02","PRE","","null","","display digit","<div class=""stimulus"">6</div>","null","9,3,5,7,6,9","","","6",""
"html-keyboard-response","65","153543","0.0-45.0-20.0","L2SPAN_2023_02","PRE","","null","","display digit","<div class=""stimulus"">9</div>","null","9,3,5,7,6,9","","","9",""
"survey-html-form-autofocus","66","157285","0.0-45.0-21.0","L2SPAN_2023_02","PRE","","3073.099999964237","{""recall"":""69""}","recall","","","935769","69","69","","true"
"html-keyboard-response","67","158766","0.0-45.0-22.0-0.0","L2SPAN_2023_02","PRE","","null","","fixation cross","<div class='stimulus'>+</div>","null","","","","",""
"html-keyboard-response","68","160574","0.0-45.0-22.0-1.0","L2SPAN_2023_02","PRE","","null","","display digit","<div class=""stimulus"">3</div>","null","3,1,5,4,3,9,2,9,5,7,0","","","3",""
"html-keyboard-response","69","162382","0.0-45.0-22.0-2.0","L2SPAN_2023_02","PRE","","null","","display digit","<div class=""stimulus"">1</div>","null","3,1,5,4,3,9,2,9,5,7,0","","","1",""
"html-keyboard-response","70","164182","0.0-45.0-22.0-3.0","L2SPAN_2023_02","PRE","","null","","display digit","<div class=""stimulus"">5</div>","null","3,1,5,4,3,9,2,9,5,7,0","","","5",""
"html-keyboard-response","71","165990","0.0-45.0-22.0-4.0","L2SPAN_2023_02","PRE","","null","","display digit","<div class=""stimulus"">4</div>","null","3,1,5,4,3,9,2,9,5,7,0","","","4",""
"html-keyboard-response","72","167798","0.0-45.0-22.0-5.0","L2SPAN_2023_02","PRE","","null","","display digit","<div class=""stimulus"">3</div>","null","3,1,5,4,3,9,2,9,5,7,0","","","3",""
"html-keyboard-response","73","169598","0.0-45.0-22.0-6.0","L2SPAN_2023_02","PRE","","null","","display digit","<div class=""stimulus"">9</div>","null","3,1,5,4,3,9,2,9,5,7,0","","","9",""
"html-keyboard-response","74","171403","0.0-45.0-22.0-7.0","L2SPAN_2023_02","PRE","","null","","display digit","<div class=""stimulus"">2</div>","null","3,1,5,4,3,9,2,9,5,7,0","","","2",""
"html-keyboard-response","75","173197","0.0-45.0-22.0-8.0","L2SPAN_2023_02","PRE","","null","","display digit","<div class=""stimulus"">9</div>","null","3,1,5,4,3,9,2,9,5,7,0","","","9",""
"html-keyboard-response","76","175006","0.0-45.0-22.0-9.0","L2SPAN_2023_02","PRE","","null","","display digit","<div class=""stimulus"">5</div>","null","3,1,5,4,3,9,2,9,5,7,0","","","5",""
"html-keyboard-response","77","176809","0.0-45.0-22.0-10.0","L2SPAN_2023_02","PRE","","null","","display digit","<div class=""stimulus"">7</div>","null","3,1,5,4,3,9,2,9,5,7,0","","","7",""
"html-keyboard-response","78","178614","0.0-45.0-22.0-11.0","L2SPAN_2023_02","PRE","","null","","display digit","<div class=""stimulus"">0</div>","null","3,1,5,4,3,9,2,9,5,7,0","","","0",""
"survey-html-form-autofocus","79","182259","0.0-45.0-22.0-12.0","L2SPAN_2023_02","PRE","","2970.399999976158","{""recall"":""570""}","recall","","","31543929570","570","570","","true"
"html-keyboard-response","80","183734","0.0-45.0-22.0-13.0","L2SPAN_2023_02","PRE","","null","","fixation cross","<div class='stimulus'>+</div>","null","","","","",""
"html-keyboard-response","81","185542","0.0-45.0-22.0-14.0","L2SPAN_2023_02","PRE","","null","","display digit","<div class=""stimulus"">6</div>","null","6,3,0,2","","","6",""
"html-keyboard-response","82","187350","0.0-45.0-22.0-15.0","L2SPAN_2023_02","PRE","","null","","display digit","<div class=""stimulus"">3</div>","null","6,3,0,2","","","3",""
"html-keyboard-response","83","189158","0.0-45.0-22.0-16.0","L2SPAN_2023_02","PRE","","null","","display digit","<div class=""stimulus"">0</div>","null","6,3,0,2","","","0",""
"html-keyboard-response","84","190964","0.0-45.0-22.0-17.0","L2SPAN_2023_02","PRE","","null","","display digit","<div class=""stimulus"">2</div>","null","6,3,0,2","","","2",""
"survey-html-form-autofocus","85","198467","0.0-45.0-22.0-18.0","L2SPAN_2023_02","PRE","","6834.199999988079","{""recall"":""032""}","recall","","","6302","032","302","","false"
"html-keyboard-response","86","199942","0.0-45.0-22.0-19.0-0.0","L2SPAN_2023_02","PRE","","null","","fixation cross","<div class='stimulus'>+</div>","null","","","","",""
"html-keyboard-response","87","201750","0.0-45.0-22.0-19.0-1.0","L2SPAN_2023_02","PRE","","null","","display digit","<div class=""stimulus"">7</div>","null","7,1,5,0,6","","","7",""
"html-keyboard-response","88","203558","0.0-45.0-22.0-19.0-2.0","L2SPAN_2023_02","PRE","","null","","display digit","<div class=""stimulus"">1</div>","null","7,1,5,0,6","","","1",""
"html-keyboard-response","89","205357","0.0-45.0-22.0-19.0-3.0","L2SPAN_2023_02","PRE","","null","","display digit","<div class=""stimulus"">5</div>","null","7,1,5,0,6","","","5",""
"html-keyboard-response","90","207166","0.0-45.0-22.0-19.0-4.0","L2SPAN_2023_02","PRE","","null","","display digit","<div class=""stimulus"">0</div>","null","7,1,5,0,6","","","0",""
"html-keyboard-response","91","208974","0.0-45.0-22.0-19.0-5.0","L2SPAN_2023_02","PRE","","null","","display digit","<div class=""stimulus"">6</div>","null","7,1,5,0,6","","","6",""
"survey-html-form-autofocus","92","216533","0.0-45.0-22.0-19.0-6.0","L2SPAN_2023_02","PRE","","6883.700000047684","{""recall"":""1506""}","recall","","","71506","1506","1506","","true"
"html-keyboard-response","93","218001","0.0-45.0-22.0-19.0-7.0","L2SPAN_2023_02","PRE","","null","","fixation cross","<div class='stimulus'>+</div>","null","","","","",""
"html-keyboard-response","94","219806","0.0-45.0-22.0-19.0-8.0","L2SPAN_2023_02","PRE","","null","","display digit","<div class=""stimulus"">1</div>","null","1,5,0,4,7,8,4,9,4,9","","","1",""
"html-keyboard-response","95","221614","0.0-45.0-22.0-19.0-9.0","L2SPAN_2023_02","PRE","","null","","display digit","<div class=""stimulus"">5</div>","null","1,5,0,4,7,8,4,9,4,9","","","5",""
"html-keyboard-response","96","223417","0.0-45.0-22.0-19.0-10.0","L2SPAN_2023_02","PRE","","null","","display digit","<div class=""stimulus"">0</div>","null","1,5,0,4,7,8,4,9,4,9","","","0",""
"html-keyboard-response","97","225222","0.0-45.0-22.0-19.0-11.0","L2SPAN_2023_02","PRE","","null","","display digit","<div class=""stimulus"">4</div>","null","1,5,0,4,7,8,4,9,4,9","","","4",""
"html-keyboard-response","98","227029","0.0-45.0-22.0-19.0-12.0","L2SPAN_2023_02","PRE","","null","","display digit","<div class=""stimulus"">7</div>","null","1,5,0,4,7,8,4,9,4,9","","","7",""
"html-keyboard-response","99","228833","0.0-45.0-22.0-19.0-13.0","L2SPAN_2023_02","PRE","","null","","display digit","<div class=""stimulus"">8</div>","null","1,5,0,4,7,8,4,9,4,9","","","8",""
"html-keyboard-response","100","230638","0.0-45.0-22.0-19.0-14.0","L2SPAN_2023_02","PRE","","null","","display digit","<div class=""stimulus"">4</div>","null","1,5,0,4,7,8,4,9,4,9","","","4",""
"html-keyboard-response","101","232446","0.0-45.0-22.0-19.0-15.0","L2SPAN_2023_02","PRE","","null","","display digit","<div class=""stimulus"">9</div>","null","1,5,0,4,7,8,4,9,4,9","","","9",""
"html-keyboard-response","102","234254","0.0-45.0-22.0-19.0-16.0","L2SPAN_2023_02","PRE","","null","","display digit","<div class=""stimulus"">4</div>","null","1,5,0,4,7,8,4,9,4,9","","","4",""
"html-keyboard-response","103","236062","0.0-45.0-22.0-19.0-17.0","L2SPAN_2023_02","PRE","","null","","display digit","<div class=""stimulus"">9</div>","null","1,5,0,4,7,8,4,9,4,9","","","9",""
"survey-html-form-autofocus","104","240069","0.0-45.0-22.0-19.0-18.0","L2SPAN_2023_02","PRE","","3333.800000011921","{""recall"":""8494""}","recall","","","1504784949","8494","4949","","false"
"html-keyboard-response","105","241550","0.0-45.0-22.0-19.0-19.0-0.0","L2SPAN_2023_02","PRE","","null","","fixation cross","<div class='stimulus'>+</div>","null","","","","",""
"html-keyboard-response","106","243352","0.0-45.0-22.0-19.0-19.0-1.0","L2SPAN_2023_02","PRE","","null","","display digit","<div class=""stimulus"">6</div>","null","6,9,5,2,7,0,1,6","","","6",""
"html-keyboard-response","107","245148","0.0-45.0-22.0-19.0-19.0-2.0","L2SPAN_2023_02","PRE","","null","","display digit","<div class=""stimulus"">9</div>","null","6,9,5,2,7,0,1,6","","","9",""
"html-keyboard-response","108","246953","0.0-45.0-22.0-19.0-19.0-3.0","L2SPAN_2023_02","PRE","","null","","display digit","<div class=""stimulus"">5</div>","null","6,9,5,2,7,0,1,6","","","5",""
"html-keyboard-response","109","248755","0.0-45.0-22.0-19.0-19.0-4.0","L2SPAN_2023_02","PRE","","null","","display digit","<div class=""stimulus"">2</div>","null","6,9,5,2,7,0,1,6","","","2",""
"html-keyboard-response","110","250558","0.0-45.0-22.0-19.0-19.0-5.0","L2SPAN_2023_02","PRE","","null","","display digit","<div class=""stimulus"">7</div>","null","6,9,5,2,7,0,1,6","","","7",""
"html-keyboard-response","111","252366","0.0-45.0-22.0-19.0-19.0-6.0","L2SPAN_2023_02","PRE","","null","","display digit","<div class=""stimulus"">0</div>","null","6,9,5,2,7,0,1,6","","","0",""
"html-keyboard-response","112","254173","0.0-45.0-22.0-19.0-19.0-7.0","L2SPAN_2023_02","PRE","","null","","display digit","<div class=""stimulus"">1</div>","null","6,9,5,2,7,0,1,6","","","1",""
"html-keyboard-response","113","255974","0.0-45.0-22.0-19.0-19.0-8.0","L2SPAN_2023_02","PRE","","null","","display digit","<div class=""stimulus"">6</div>","null","6,9,5,2,7,0,1,6","","","6",""
"survey-html-form-autofocus","114","260125","0.0-45.0-22.0-19.0-19.0-9.0","L2SPAN_2023_02","PRE","","3476.199999988079","{""recall"":""27016""}","recall","","","69527016","27016","27016","","true"
"html-keyboard-response","115","261606","0.0-45.0-22.0-19.0-19.0-10.0","L2SPAN_2023_02","PRE","","null","","fixation cross","<div class='stimulus'>+</div>","null","","","","",""
"html-keyboard-response","116","263414","0.0-45.0-22.0-19.0-19.0-11.0","L2SPAN_2023_02","PRE","","null","","display digit","<div class=""stimulus"">6</div>","null","6,2,1,0,8,5,1,8,6,8,4,6,3","","","6",""
"html-keyboard-response","117","265221","0.0-45.0-22.0-19.0-19.0-12.0","L2SPAN_2023_02","PRE","","null","","display digit","<div class=""stimulus"">2</div>","null","6,2,1,0,8,5,1,8,6,8,4,6,3","","","2",""
"html-keyboard-response","118","267026","0.0-45.0-22.0-19.0-19.0-13.0","L2SPAN_2023_02","PRE","","null","","display digit","<div class=""stimulus"">1</div>","null","6,2,1,0,8,5,1,8,6,8,4,6,3","","","1",""
"html-keyboard-response","119","268828","0.0-45.0-22.0-19.0-19.0-14.0","L2SPAN_2023_02","PRE","","null","","display digit","<div class=""stimulus"">0</div>","null","6,2,1,0,8,5,1,8,6,8,4,6,3","","","0",""
"html-keyboard-response","120","270638","0.0-45.0-22.0-19.0-19.0-15.0","L2SPAN_2023_02","PRE","","null","","display digit","<div class=""stimulus"">8</div>","null","6,2,1,0,8,5,1,8,6,8,4,6,3","","","8",""
"html-keyboard-response","121","272445","0.0-45.0-22.0-19.0-19.0-16.0","L2SPAN_2023_02","PRE","","null","","display digit","<div class=""stimulus"">5</div>","null","6,2,1,0,8,5,1,8,6,8,4,6,3","","","5",""
"html-keyboard-response","122","274253","0.0-45.0-22.0-19.0-19.0-17.0","L2SPAN_2023_02","PRE","","null","","display digit","<div class=""stimulus"">1</div>","null","6,2,1,0,8,5,1,8,6,8,4,6,3","","","1",""
"html-keyboard-response","123","276062","0.0-45.0-22.0-19.0-19.0-18.0","L2SPAN_2023_02","PRE","","null","","display digit","<div class=""stimulus"">8</div>","null","6,2,1,0,8,5,1,8,6,8,4,6,3","","","8",""
"html-keyboard-response","124","277870","0.0-45.0-22.0-19.0-19.0-19.0","L2SPAN_2023_02","PRE","","null","","display digit","<div class=""stimulus"">6</div>","null","6,2,1,0,8,5,1,8,6,8,4,6,3","","","6",""
"html-keyboard-response","125","279677","0.0-45.0-22.0-19.0-19.0-20.0","L2SPAN_2023_02","PRE","","null","","display digit","<div class=""stimulus"">8</div>","null","6,2,1,0,8,5,1,8,6,8,4,6,3","","","8",""
"html-keyboard-response","126","281481","0.0-45.0-22.0-19.0-19.0-21.0","L2SPAN_2023_02","PRE","","null","","display digit","<div class=""stimulus"">4</div>","null","6,2,1,0,8,5,1,8,6,8,4,6,3","","","4",""
"html-keyboard-response","127","283285","0.0-45.0-22.0-19.0-19.0-22.0","L2SPAN_2023_02","PRE","","null","","display digit","<div class=""stimulus"">6</div>","null","6,2,1,0,8,5,1,8,6,8,4,6,3","","","6",""
"html-keyboard-response","128","285082","0.0-45.0-22.0-19.0-19.0-23.0","L2SPAN_2023_02","PRE","","null","","display digit","<div class=""stimulus"">3</div>","null","6,2,1,0,8,5,1,8,6,8,4,6,3","","","3",""
"survey-html-form-autofocus","129","291561","0.0-45.0-22.0-19.0-19.0-24.0","L2SPAN_2023_02","PRE","","5813.199999988079","{""recall"":""86843""}","recall","","","6210851868463","86843","68463","","false"
"html-keyboard-response","130","293033","0.0-45.0-22.0-19.0-19.0-25.0-0.0","L2SPAN_2023_02","PRE","","null","","fixation cross","<div class='stimulus'>+</div>","null","","","","",""
"html-keyboard-response","131","294837","0.0-45.0-22.0-19.0-19.0-25.0-1.0","L2SPAN_2023_02","PRE","","null","","display digit","<div class=""stimulus"">0</div>","null","0,8,2,0,3,7,8,6,3,0,7,1","","","0",""
"html-keyboard-response","132","296642","0.0-45.0-22.0-19.0-19.0-25.0-2.0","L2SPAN_2023_02","PRE","","null","","display digit","<div class=""stimulus"">8</div>","null","0,8,2,0,3,7,8,6,3,0,7,1","","","8",""
"html-keyboard-response","133","298441","0.0-45.0-22.0-19.0-19.0-25.0-3.0","L2SPAN_2023_02","PRE","","null","","display digit","<div class=""stimulus"">2</div>","null","0,8,2,0,3,7,8,6,3,0,7,1","","","2",""
"html-keyboard-response","134","300243","0.0-45.0-22.0-19.0-19.0-25.0-4.0","L2SPAN_2023_02","PRE","","null","","display digit","<div class=""stimulus"">0</div>","null","0,8,2,0,3,7,8,6,3,0,7,1","","","0",""
"html-keyboard-response","135","302037","0.0-45.0-22.0-19.0-19.0-25.0-5.0","L2SPAN_2023_02","PRE","","null","","display digit","<div class=""stimulus"">3</div>","null","0,8,2,0,3,7,8,6,3,0,7,1","","","3",""
"html-keyboard-response","136","303846","0.0-45.0-22.0-19.0-19.0-25.0-6.0","L2SPAN_2023_02","PRE","","null","","display digit","<div class=""stimulus"">7</div>","null","0,8,2,0,3,7,8,6,3,0,7,1","","","7",""
"html-keyboard-response","137","305653","0.0-45.0-22.0-19.0-19.0-25.0-7.0","L2SPAN_2023_02","PRE","","null","","display digit","<div class=""stimulus"">8</div>","null","0,8,2,0,3,7,8,6,3,0,7,1","","","8",""
"html-keyboard-response","138","307458","0.0-45.0-22.0-19.0-19.0-25.0-8.0","L2SPAN_2023_02","PRE","","null","","display digit","<div class=""stimulus"">6</div>","null","0,8,2,0,3,7,8,6,3,0,7,1","","","6",""
"html-keyboard-response","139","309253","0.0-45.0-22.0-19.0-19.0-25.0-9.0","L2SPAN_2023_02","PRE","","null","","display digit","<div class=""stimulus"">3</div>","null","0,8,2,0,3,7,8,6,3,0,7,1","","","3",""
"html-keyboard-response","140","311057","0.0-45.0-22.0-19.0-19.0-25.0-10.0","L2SPAN_2023_02","PRE","","null","","display digit","<div class=""stimulus"">0</div>","null","0,8,2,0,3,7,8,6,3,0,7,1","","","0",""
"html-keyboard-response","141","312861","0.0-45.0-22.0-19.0-19.0-25.0-11.0","L2SPAN_2023_02","PRE","","null","","display digit","<div class=""stimulus"">7</div>","null","0,8,2,0,3,7,8,6,3,0,7,1","","","7",""
"html-keyboard-response","142","314661","0.0-45.0-22.0-19.0-19.0-25.0-12.0","L2SPAN_2023_02","PRE","","null","","display digit","<div class=""stimulus"">1</div>","null","0,8,2,0,3,7,8,6,3,0,7,1","","","1",""
"survey-html-form-autofocus","143","322733","0.0-45.0-22.0-19.0-19.0-25.0-13.0","L2SPAN_2023_02","PRE","","7396.800000011921","{""recall"":""8785301""}","recall","","","082037863071","8785301","863071","","false"
"html-keyboard-response","144","324214","0.0-45.0-22.0-19.0-19.0-25.0-14.0","L2SPAN_2023_02","PRE","","null","","fixation cross","<div class='stimulus'>+</div>","null","","","","",""
"html-keyboard-response","145","326022","0.0-45.0-22.0-19.0-19.0-25.0-15.0","L2SPAN_2023_02","PRE","","null","","display digit","<div class=""stimulus"">3</div>","null","3,5,3,9,1,4","","","3",""
"html-keyboard-response","146","327822","0.0-45.0-22.0-19.0-19.0-25.0-16.0","L2SPAN_2023_02","PRE","","null","","display digit","<div class=""stimulus"">5</div>","null","3,5,3,9,1,4","","","5",""
"html-keyboard-response","147","329629","0.0-45.0-22.0-19.0-19.0-25.0-17.0","L2SPAN_2023_02","PRE","","null","","display digit","<div class=""stimulus"">3</div>","null","3,5,3,9,1,4","","","3",""
"html-keyboard-response","148","331437","0.0-45.0-22.0-19.0-19.0-25.0-18.0","L2SPAN_2023_02","PRE","","null","","display digit","<div class=""stimulus"">9</div>","null","3,5,3,9,1,4","","","9",""
"html-keyboard-response","149","333245","0.0-45.0-22.0-19.0-19.0-25.0-19.0","L2SPAN_2023_02","PRE","","null","","display digit","<div class=""stimulus"">1</div>","null","3,5,3,9,1,4","","","1",""
"html-keyboard-response","150","335054","0.0-45.0-22.0-19.0-19.0-25.0-20.0","L2SPAN_2023_02","PRE","","null","","display digit","<div class=""stimulus"">4</div>","null","3,5,3,9,1,4","","","4",""
"survey-html-form-autofocus","151","339819","0.0-45.0-22.0-19.0-19.0-25.0-21.0","L2SPAN_2023_02","PRE","","4091","{""recall"":""353914""}","recall","","","353914","353914","353914","","true"
"html-keyboard-response","152","341293","0.0-45.0-22.0-19.0-19.0-25.0-22.0-0.0","L2SPAN_2023_02","PRE","","null","","fixation cross","<div class='stimulus'>+</div>","null","","","","",""
"html-keyboard-response","153","343102","0.0-45.0-22.0-19.0-19.0-25.0-22.0-1.0","L2SPAN_2023_02","PRE","","null","","display digit","<div class=""stimulus"">2</div>","null","2,3,0,9,7,6,0,1,2,9","","","2",""
"html-keyboard-response","154","344909","0.0-45.0-22.0-19.0-19.0-25.0-22.0-2.0","L2SPAN_2023_02","PRE","","null","","display digit","<div class=""stimulus"">3</div>","null","2,3,0,9,7,6,0,1,2,9","","","3",""
"html-keyboard-response","155","346709","0.0-45.0-22.0-19.0-19.0-25.0-22.0-3.0","L2SPAN_2023_02","PRE","","null","","display digit","<div class=""stimulus"">0</div>","null","2,3,0,9,7,6,0,1,2,9","","","0",""
"html-keyboard-response","156","348517","0.0-45.0-22.0-19.0-19.0-25.0-22.0-4.0","L2SPAN_2023_02","PRE","","null","","display digit","<div class=""stimulus"">9</div>","null","2,3,0,9,7,6,0,1,2,9","","","9",""
"html-keyboard-response","157","350325","0.0-45.0-22.0-19.0-19.0-25.0-22.0-5.0","L2SPAN_2023_02","PRE","","null","","display digit","<div class=""stimulus"">7</div>","null","2,3,0,9,7,6,0,1,2,9","","","7",""
"html-keyboard-response","158","352121","0.0-45.0-22.0-19.0-19.0-25.0-22.0-6.0","L2SPAN_2023_02","PRE","","null","","display digit","<div class=""stimulus"">6</div>","null","2,3,0,9,7,6,0,1,2,9","","","6",""
"html-keyboard-response","159","353925","0.0-45.0-22.0-19.0-19.0-25.0-22.0-7.0","L2SPAN_2023_02","PRE","","null","","display digit","<div class=""stimulus"">0</div>","null","2,3,0,9,7,6,0,1,2,9","","","0",""
"html-keyboard-response","160","355733","0.0-45.0-22.0-19.0-19.0-25.0-22.0-8.0","L2SPAN_2023_02","PRE","","null","","display digit","<div class=""stimulus"">1</div>","null","2,3,0,9,7,6,0,1,2,9","","","1",""
"html-keyboard-response","161","357531","0.0-45.0-22.0-19.0-19.0-25.0-22.0-9.0","L2SPAN_2023_02","PRE","","null","","display digit","<div class=""stimulus"">2</div>","null","2,3,0,9,7,6,0,1,2,9","","","2",""
"html-keyboard-response","162","359333","0.0-45.0-22.0-19.0-19.0-25.0-22.0-10.0","L2SPAN_2023_02","PRE","","null","","display digit","<div class=""stimulus"">9</div>","null","2,3,0,9,7,6,0,1,2,9","","","9",""
"survey-html-form-autofocus","163","364833","0.0-45.0-22.0-19.0-19.0-25.0-22.0-11.0","L2SPAN_2023_02","PRE","","4824.800000011921","{""recall"":""380129""}","recall","","","2309760129","380129","9760129","","false"
"html-keyboard-response","164","366309","0.0-45.0-22.0-19.0-19.0-25.0-22.0-12.0","L2SPAN_2023_02","PRE","","null","","fixation cross","<div class='stimulus'>+</div>","null","","","","",""
"html-keyboard-response","165","368117","0.0-45.0-22.0-19.0-19.0-25.0-22.0-13.0","L2SPAN_2023_02","PRE","","null","","display digit","<div class=""stimulus"">8</div>","null","8,6,4,9,5,3,6,3,2,6","","","8",""
"html-keyboard-response","166","369925","0.0-45.0-22.0-19.0-19.0-25.0-22.0-14.0","L2SPAN_2023_02","PRE","","null","","display digit","<div class=""stimulus"">6</div>","null","8,6,4,9,5,3,6,3,2,6","","","6",""
"html-keyboard-response","167","371730","0.0-45.0-22.0-19.0-19.0-25.0-22.0-15.0","L2SPAN_2023_02","PRE","","null","","display digit","<div class=""stimulus"">4</div>","null","8,6,4,9,5,3,6,3,2,6","","","4",""
"html-keyboard-response","168","373533","0.0-45.0-22.0-19.0-19.0-25.0-22.0-16.0","L2SPAN_2023_02","PRE","","null","","display digit","<div class=""stimulus"">9</div>","null","8,6,4,9,5,3,6,3,2,6","","","9",""
"html-keyboard-response","169","375341","0.0-45.0-22.0-19.0-19.0-25.0-22.0-17.0","L2SPAN_2023_02","PRE","","null","","display digit","<div class=""stimulus"">5</div>","null","8,6,4,9,5,3,6,3,2,6","","","5",""
"html-keyboard-response","170","377138","0.0-45.0-22.0-19.0-19.0-25.0-22.0-18.0","L2SPAN_2023_02","PRE","","null","","display digit","<div class=""stimulus"">3</div>","null","8,6,4,9,5,3,6,3,2,6","","","3",""
"html-keyboard-response","171","378942","0.0-45.0-22.0-19.0-19.0-25.0-22.0-19.0","L2SPAN_2023_02","PRE","","null","","display digit","<div class=""stimulus"">6</div>","null","8,6,4,9,5,3,6,3,2,6","","","6",""
"html-keyboard-response","172","380742","0.0-45.0-22.0-19.0-19.0-25.0-22.0-20.0","L2SPAN_2023_02","PRE","","null","","display digit","<div class=""stimulus"">3</div>","null","8,6,4,9,5,3,6,3,2,6","","","3",""
"html-keyboard-response","173","382549","0.0-45.0-22.0-19.0-19.0-25.0-22.0-21.0","L2SPAN_2023_02","PRE","","null","","display digit","<div class=""stimulus"">2</div>","null","8,6,4,9,5,3,6,3,2,6","","","2",""
"html-keyboard-response","174","384357","0.0-45.0-22.0-19.0-19.0-25.0-22.0-22.0","L2SPAN_2023_02","PRE","","null","","display digit","<div class=""stimulus"">6</div>","null","8,6,4,9,5,3,6,3,2,6","","","6",""
"survey-html-form-autofocus","175","394812","0.0-45.0-22.0-19.0-19.0-25.0-22.0-23.0","L2SPAN_2023_02","PRE","","9779.800000011921","{""recall"":""9536326""}","recall","","","8649536326","9536326","9536326","","true"
"html-keyboard-response","176","396293","0.0-45.0-22.0-19.0-19.0-25.0-22.0-24.0-0.0","L2SPAN_2023_02","PRE","","null","","fixation cross","<div class='stimulus'>+</div>","null","","","","",""
"html-keyboard-response","177","398101","0.0-45.0-22.0-19.0-19.0-25.0-22.0-24.0-1.0","L2SPAN_2023_02","PRE","","null","","display digit","<div class=""stimulus"">9</div>","null","9,4,8,0,1,0,8,2,3,8,0,8,6","","","9",""
"html-keyboard-response","178","399901","0.0-45.0-22.0-19.0-19.0-25.0-22.0-24.0-2.0","L2SPAN_2023_02","PRE","","null","","display digit","<div class=""stimulus"">4</div>","null","9,4,8,0,1,0,8,2,3,8,0,8,6","","","4",""
"html-keyboard-response","179","401701","0.0-45.0-22.0-19.0-19.0-25.0-22.0-24.0-3.0","L2SPAN_2023_02","PRE","","null","","display digit","<div class=""stimulus"">8</div>","null","9,4,8,0,1,0,8,2,3,8,0,8,6","","","8",""
"html-keyboard-response","180","403509","0.0-45.0-22.0-19.0-19.0-25.0-22.0-24.0-4.0","L2SPAN_2023_02","PRE","","null","","display digit","<div class=""stimulus"">0</div>","null","9,4,8,0,1,0,8,2,3,8,0,8,6","","","0",""
"html-keyboard-response","181","405317","0.0-45.0-22.0-19.0-19.0-25.0-22.0-24.0-5.0","L2SPAN_2023_02","PRE","","null","","display digit","<div class=""stimulus"">1</div>","null","9,4,8,0,1,0,8,2,3,8,0,8,6","","","1",""
"html-keyboard-response","182","407124","0.0-45.0-22.0-19.0-19.0-25.0-22.0-24.0-6.0","L2SPAN_2023_02","PRE","","null","","display digit","<div class=""stimulus"">0</div>","null","9,4,8,0,1,0,8,2,3,8,0,8,6","","","0",""
"html-keyboard-response","183","408933","0.0-45.0-22.0-19.0-19.0-25.0-22.0-24.0-7.0","L2SPAN_2023_02","PRE","","null","","display digit","<div class=""stimulus"">8</div>","null","9,4,8,0,1,0,8,2,3,8,0,8,6","","","8",""
"html-keyboard-response","184","410737","0.0-45.0-22.0-19.0-19.0-25.0-22.0-24.0-8.0","L2SPAN_2023_02","PRE","","null","","display digit","<div class=""stimulus"">2</div>","null","9,4,8,0,1,0,8,2,3,8,0,8,6","","","2",""
"html-keyboard-response","185","412541","0.0-45.0-22.0-19.0-19.0-25.0-22.0-24.0-9.0","L2SPAN_2023_02","PRE","","null","","display digit","<div class=""stimulus"">3</div>","null","9,4,8,0,1,0,8,2,3,8,0,8,6","","","3",""
"html-keyboard-response","186","414349","0.0-45.0-22.0-19.0-19.0-25.0-22.0-24.0-10.0","L2SPAN_2023_02","PRE","","null","","display digit","<div class=""stimulus"">8</div>","null","9,4,8,0,1,0,8,2,3,8,0,8,6","","","8",""
"html-keyboard-response","187","416157","0.0-45.0-22.0-19.0-19.0-25.0-22.0-24.0-11.0","L2SPAN_2023_02","PRE","","null","","display digit","<div class=""stimulus"">0</div>","null","9,4,8,0,1,0,8,2,3,8,0,8,6","","","0",""
"html-keyboard-response","188","417953","0.0-45.0-22.0-19.0-19.0-25.0-22.0-24.0-12.0","L2SPAN_2023_02","PRE","","null","","display digit","<div class=""stimulus"">8</div>","null","9,4,8,0,1,0,8,2,3,8,0,8,6","","","8",""
"html-keyboard-response","189","419757","0.0-45.0-22.0-19.0-19.0-25.0-22.0-24.0-13.0","L2SPAN_2023_02","PRE","","null","","display digit","<div class=""stimulus"">6</div>","null","9,4,8,0,1,0,8,2,3,8,0,8,6","","","6",""
"survey-html-form-autofocus","190","436153","0.0-45.0-22.0-19.0-19.0-25.0-22.0-24.0-14.0","L2SPAN_2023_02","PRE","","15720.899999976158","{""recall"":""94801084""}","recall","","","9480108238086","94801084","08238086","","false"
"html-keyboard-response","191","437629","0.0-45.0-22.0-19.0-19.0-25.0-22.0-24.0-15.0","L2SPAN_2023_02","PRE","","null","","fixation cross","<div class='stimulus'>+</div>","null","","","","",""
"html-keyboard-response","192","439429","0.0-45.0-22.0-19.0-19.0-25.0-22.0-24.0-16.0","L2SPAN_2023_02","PRE","","null","","display digit","<div class=""stimulus"">7</div>","null","7,8,6,4,2,9,6,5,9,5,2,8,1","","","7",""
"html-keyboard-response","193","441237","0.0-45.0-22.0-19.0-19.0-25.0-22.0-24.0-17.0","L2SPAN_2023_02","PRE","","null","","display digit","<div class=""stimulus"">8</div>","null","7,8,6,4,2,9,6,5,9,5,2,8,1","","","8",""
"html-keyboard-response","194","443043","0.0-45.0-22.0-19.0-19.0-25.0-22.0-24.0-18.0","L2SPAN_2023_02","PRE","","null","","display digit","<div class=""stimulus"">6</div>","null","7,8,6,4,2,9,6,5,9,5,2,8,1","","","6",""
"html-keyboard-response","195","444853","0.0-45.0-22.0-19.0-19.0-25.0-22.0-24.0-19.0","L2SPAN_2023_02","PRE","","null","","display digit","<div class=""stimulus"">4</div>","null","7,8,6,4,2,9,6,5,9,5,2,8,1","","","4",""
"html-keyboard-response","196","446661","0.0-45.0-22.0-19.0-19.0-25.0-22.0-24.0-20.0","L2SPAN_2023_02","PRE","","null","","display digit","<div class=""stimulus"">2</div>","null","7,8,6,4,2,9,6,5,9,5,2,8,1","","","2",""
"html-keyboard-response","197","448469","0.0-45.0-22.0-19.0-19.0-25.0-22.0-24.0-21.0","L2SPAN_2023_02","PRE","","null","","display digit","<div class=""stimulus"">9</div>","null","7,8,6,4,2,9,6,5,9,5,2,8,1","","","9",""
"html-keyboard-response","198","450269","0.0-45.0-22.0-19.0-19.0-25.0-22.0-24.0-22.0","L2SPAN_2023_02","PRE","","null","","display digit","<div class=""stimulus"">6</div>","null","7,8,6,4,2,9,6,5,9,5,2,8,1","","","6",""
"html-keyboard-response","199","452077","0.0-45.0-22.0-19.0-19.0-25.0-22.0-24.0-23.0","L2SPAN_2023_02","PRE","","null","","display digit","<div class=""stimulus"">5</div>","null","7,8,6,4,2,9,6,5,9,5,2,8,1","","","5",""
"html-keyboard-response","200","453885","0.0-45.0-22.0-19.0-19.0-25.0-22.0-24.0-24.0","L2SPAN_2023_02","PRE","","null","","display digit","<div class=""stimulus"">9</div>","null","7,8,6,4,2,9,6,5,9,5,2,8,1","","","9",""
"html-keyboard-response","201","455685","0.0-45.0-22.0-19.0-19.0-25.0-22.0-24.0-25.0","L2SPAN_2023_02","PRE","","null","","display digit","<div class=""stimulus"">5</div>","null","7,8,6,4,2,9,6,5,9,5,2,8,1","","","5",""
"html-keyboard-response","202","457485","0.0-45.0-22.0-19.0-19.0-25.0-22.0-24.0-26.0","L2SPAN_2023_02","PRE","","null","","display digit","<div class=""stimulus"">2</div>","null","7,8,6,4,2,9,6,5,9,5,2,8,1","","","2",""
"html-keyboard-response","203","459293","0.0-45.0-22.0-19.0-19.0-25.0-22.0-24.0-27.0","L2SPAN_2023_02","PRE","","null","","display digit","<div class=""stimulus"">8</div>","null","7,8,6,4,2,9,6,5,9,5,2,8,1","","","8",""
"html-keyboard-response","204","461093","0.0-45.0-22.0-19.0-19.0-25.0-22.0-24.0-28.0","L2SPAN_2023_02","PRE","","null","","display digit","<div class=""stimulus"">1</div>","null","7,8,6,4,2,9,6,5,9,5,2,8,1","","","1",""
"survey-html-form-autofocus","205","478535","0.0-45.0-22.0-19.0-19.0-25.0-22.0-24.0-29.0","L2SPAN_2023_02","PRE","","16767","{""recall"":""96595281""}","recall","","","7864296595281","96595281","96595281","","true"
"html-keyboard-response","206","480013","0.0-45.0-22.0-19.0-19.0-25.0-22.0-24.0-30.0-0.0","L2SPAN_2023_02","PRE","","null","","fixation cross","<div class='stimulus'>+</div>","null","","","","",""
"html-keyboard-response","207","481817","0.0-45.0-22.0-19.0-19.0-25.0-22.0-24.0-30.0-1.0","L2SPAN_2023_02","PRE","","null","","display digit","<div class=""stimulus"">5</div>","null","5,3,5,4,8,9,5,0,6,0,9,4","","","5",""
"html-keyboard-response","208","483621","0.0-45.0-22.0-19.0-19.0-25.0-22.0-24.0-30.0-2.0","L2SPAN_2023_02","PRE","","null","","display digit","<div class=""stimulus"">3</div>","null","5,3,5,4,8,9,5,0,6,0,9,4","","","3",""
"html-keyboard-response","209","485429","0.0-45.0-22.0-19.0-19.0-25.0-22.0-24.0-30.0-3.0","L2SPAN_2023_02","PRE","","null","","display digit","<div class=""stimulus"">5</div>","null","5,3,5,4,8,9,5,0,6,0,9,4","","","5",""
"html-keyboard-response","210","487237","0.0-45.0-22.0-19.0-19.0-25.0-22.0-24.0-30.0-4.0","L2SPAN_2023_02","PRE","","null","","display digit","<div class=""stimulus"">4</div>","null","5,3,5,4,8,9,5,0,6,0,9,4","","","4",""
"html-keyboard-response","211","489045","0.0-45.0-22.0-19.0-19.0-25.0-22.0-24.0-30.0-5.0","L2SPAN_2023_02","PRE","","null","","display digit","<div class=""stimulus"">8</div>","null","5,3,5,4,8,9,5,0,6,0,9,4","","","8",""
"html-keyboard-response","212","490852","0.0-45.0-22.0-19.0-19.0-25.0-22.0-24.0-30.0-6.0","L2SPAN_2023_02","PRE","","null","","display digit","<div class=""stimulus"">9</div>","null","5,3,5,4,8,9,5,0,6,0,9,4","","","9",""
"html-keyboard-response","213","492657","0.0-45.0-22.0-19.0-19.0-25.0-22.0-24.0-30.0-7.0","L2SPAN_2023_02","PRE","","null","","display digit","<div class=""stimulus"">5</div>","null","5,3,5,4,8,9,5,0,6,0,9,4","","","5",""
"html-keyboard-response","214","494461","0.0-45.0-22.0-19.0-19.0-25.0-22.0-24.0-30.0-8.0","L2SPAN_2023_02","PRE","","null","","display digit","<div class=""stimulus"">0</div>","null","5,3,5,4,8,9,5,0,6,0,9,4","","","0",""
"html-keyboard-response","215","496268","0.0-45.0-22.0-19.0-19.0-25.0-22.0-24.0-30.0-9.0","L2SPAN_2023_02","PRE","","null","","display digit","<div class=""stimulus"">6</div>","null","5,3,5,4,8,9,5,0,6,0,9,4","","","6",""
"html-keyboard-response","216","498065","0.0-45.0-22.0-19.0-19.0-25.0-22.0-24.0-30.0-10.0","L2SPAN_2023_02","PRE","","null","","display digit","<div class=""stimulus"">0</div>","null","5,3,5,4,8,9,5,0,6,0,9,4","","","0",""
"html-keyboard-response","217","499869","0.0-45.0-22.0-19.0-19.0-25.0-22.0-24.0-30.0-11.0","L2SPAN_2023_02","PRE","","null","","display digit","<div class=""stimulus"">9</div>","null","5,3,5,4,8,9,5,0,6,0,9,4","","","9",""
"html-keyboard-response","218","501676","0.0-45.0-22.0-19.0-19.0-25.0-22.0-24.0-30.0-12.0","L2SPAN_2023_02","PRE","","null","","display digit","<div class=""stimulus"">4</div>","null","5,3,5,4,8,9,5,0,6,0,9,4","","","4",""
"survey-html-form-autofocus","219","513623","0.0-45.0-22.0-19.0-19.0-25.0-22.0-24.0-30.0-13.0","L2SPAN_2023_02","PRE","","11271.5","{""recall"":""535450907""}","recall","","","535489506094","535450907","489506094","","false"
"html-keyboard-response","220","515101","0.0-45.0-22.0-19.0-19.0-25.0-22.0-24.0-30.0-14.0","L2SPAN_2023_02","PRE","","null","","fixation cross","<div class='stimulus'>+</div>","null","","","","",""
"html-keyboard-response","221","516909","0.0-45.0-22.0-19.0-19.0-25.0-22.0-24.0-30.0-15.0","L2SPAN_2023_02","PRE","","null","","display digit","<div class=""stimulus"">5</div>","null","5,4,7,8,5,7,1,7,2","","","5",""
"html-keyboard-response","222","518709","0.0-45.0-22.0-19.0-19.0-25.0-22.0-24.0-30.0-16.0","L2SPAN_2023_02","PRE","","null","","display digit","<div class=""stimulus"">4</div>","null","5,4,7,8,5,7,1,7,2","","","4",""
"html-keyboard-response","223","520516","0.0-45.0-22.0-19.0-19.0-25.0-22.0-24.0-30.0-17.0","L2SPAN_2023_02","PRE","","null","","display digit","<div class=""stimulus"">7</div>","null","5,4,7,8,5,7,1,7,2","","","7",""
"html-keyboard-response","224","522324","0.0-45.0-22.0-19.0-19.0-25.0-22.0-24.0-30.0-18.0","L2SPAN_2023_02","PRE","","null","","display digit","<div class=""stimulus"">8</div>","null","5,4,7,8,5,7,1,7,2","","","8",""
"html-keyboard-response","225","524132","0.0-45.0-22.0-19.0-19.0-25.0-22.0-24.0-30.0-19.0","L2SPAN_2023_02","PRE","","null","","display digit","<div class=""stimulus"">5</div>","null","5,4,7,8,5,7,1,7,2","","","5",""
"html-keyboard-response","226","525936","0.0-45.0-22.0-19.0-19.0-25.0-22.0-24.0-30.0-20.0","L2SPAN_2023_02","PRE","","null","","display digit","<div class=""stimulus"">7</div>","null","5,4,7,8,5,7,1,7,2","","","7",""
"html-keyboard-response","227","527741","0.0-45.0-22.0-19.0-19.0-25.0-22.0-24.0-30.0-21.0","L2SPAN_2023_02","PRE","","null","","display digit","<div class=""stimulus"">1</div>","null","5,4,7,8,5,7,1,7,2","","","1",""
"html-keyboard-response","228","529538","0.0-45.0-22.0-19.0-19.0-25.0-22.0-24.0-30.0-22.0","L2SPAN_2023_02","PRE","","null","","display digit","<div class=""stimulus"">7</div>","null","5,4,7,8,5,7,1,7,2","","","7",""
"html-keyboard-response","229","531333","0.0-45.0-22.0-19.0-19.0-25.0-22.0-24.0-30.0-23.0","L2SPAN_2023_02","PRE","","null","","display digit","<div class=""stimulus"">2</div>","null","5,4,7,8,5,7,1,7,2","","","2",""
"survey-html-form-autofocus","230","541762","0.0-45.0-22.0-19.0-19.0-25.0-22.0-24.0-30.0-24.0","L2SPAN_2023_02","PRE","","9755.199999988079","{""recall"":""547857172""}","recall","","","547857172","547857172","547857172","","true"
"html-keyboard-response","231","543236","0.0-45.0-22.0-19.0-19.0-25.0-22.0-24.0-30.0-25.0-0.0","L2SPAN_2023_02","PRE","","null","","fixation cross","<div class='stimulus'>+</div>","null","","","","",""
"html-keyboard-response","232","545044","0.0-45.0-22.0-19.0-19.0-25.0-22.0-24.0-30.0-25.0-1.0","L2SPAN_2023_02","PRE","","null","","display digit","<div class=""stimulus"">8</div>","null","8,2,4,2,6,2,6,1,8,5,1,7","","","8",""
"html-keyboard-response","233","546844","0.0-45.0-22.0-19.0-19.0-25.0-22.0-24.0-30.0-25.0-2.0","L2SPAN_2023_02","PRE","","null","","display digit","<div class=""stimulus"">2</div>","null","8,2,4,2,6,2,6,1,8,5,1,7","","","2",""
"html-keyboard-response","234","548652","0.0-45.0-22.0-19.0-19.0-25.0-22.0-24.0-30.0-25.0-3.0","L2SPAN_2023_02","PRE","","null","","display digit","<div class=""stimulus"">4</div>","null","8,2,4,2,6,2,6,1,8,5,1,7","","","4",""
"html-keyboard-response","235","550460","0.0-45.0-22.0-19.0-19.0-25.0-22.0-24.0-30.0-25.0-4.0","L2SPAN_2023_02","PRE","","null","","display digit","<div class=""stimulus"">2</div>","null","8,2,4,2,6,2,6,1,8,5,1,7","","","2",""
"html-keyboard-response","236","552261","0.0-45.0-22.0-19.0-19.0-25.0-22.0-24.0-30.0-25.0-5.0","L2SPAN_2023_02","PRE","","null","","display digit","<div class=""stimulus"">6</div>","null","8,2,4,2,6,2,6,1,8,5,1,7","","","6",""
"html-keyboard-response","237","554069","0.0-45.0-22.0-19.0-19.0-25.0-22.0-24.0-30.0-25.0-6.0","L2SPAN_2023_02","PRE","","null","","display digit","<div class=""stimulus"">2</div>","null","8,2,4,2,6,2,6,1,8,5,1,7","","","2",""
"html-keyboard-response","238","555877","0.0-45.0-22.0-19.0-19.0-25.0-22.0-24.0-30.0-25.0-7.0","L2SPAN_2023_02","PRE","","null","","display digit","<div class=""stimulus"">6</div>","null","8,2,4,2,6,2,6,1,8,5,1,7","","","6",""
"html-keyboard-response","239","557685","0.0-45.0-22.0-19.0-19.0-25.0-22.0-24.0-30.0-25.0-8.0","L2SPAN_2023_02","PRE","","null","","display digit","<div class=""stimulus"">1</div>","null","8,2,4,2,6,2,6,1,8,5,1,7","","","1",""
"html-keyboard-response","240","559493","0.0-45.0-22.0-19.0-19.0-25.0-22.0-24.0-30.0-25.0-9.0","L2SPAN_2023_02","PRE","","null","","display digit","<div class=""stimulus"">8</div>","null","8,2,4,2,6,2,6,1,8,5,1,7","","","8",""
"html-keyboard-response","241","561300","0.0-45.0-22.0-19.0-19.0-25.0-22.0-24.0-30.0-25.0-10.0","L2SPAN_2023_02","PRE","","null","","display digit","<div class=""stimulus"">5</div>","null","8,2,4,2,6,2,6,1,8,5,1,7","","","5",""
"html-keyboard-response","242","563100","0.0-45.0-22.0-19.0-19.0-25.0-22.0-24.0-30.0-25.0-11.0","L2SPAN_2023_02","PRE","","null","","display digit","<div class=""stimulus"">1</div>","null","8,2,4,2,6,2,6,1,8,5,1,7","","","1",""
"html-keyboard-response","243","564907","0.0-45.0-22.0-19.0-19.0-25.0-22.0-24.0-30.0-25.0-12.0","L2SPAN_2023_02","PRE","","null","","display digit","<div class=""stimulus"">7</div>","null","8,2,4,2,6,2,6,1,8,5,1,7","","","7",""
"survey-html-form-autofocus","244","577520","0.0-45.0-22.0-19.0-19.0-25.0-22.0-24.0-30.0-25.0-13.0","L2SPAN_2023_02","PRE","","11940.300000011921","{""recall"":""924262618""}","recall","","","824262618517","924262618","4262618517","","false"
"html-keyboard-response","245","578997","0.0-45.0-22.0-19.0-19.0-25.0-22.0-24.0-30.0-25.0-14.0","L2SPAN_2023_02","PRE","","null","","fixation cross","<div class='stimulus'>+</div>","null","","","","",""
"html-keyboard-response","246","580805","0.0-45.0-22.0-19.0-19.0-25.0-22.0-24.0-30.0-25.0-15.0","L2SPAN_2023_02","PRE","","null","","display digit","<div class=""stimulus"">2</div>","null","2,6,9,1,0,2,5,8,3,6,4,9","","","2",""
"html-keyboard-response","247","582612","0.0-45.0-22.0-19.0-19.0-25.0-22.0-24.0-30.0-25.0-16.0","L2SPAN_2023_02","PRE","","null","","display digit","<div class=""stimulus"">6</div>","null","2,6,9,1,0,2,5,8,3,6,4,9","","","6",""
"html-keyboard-response","248","584413","0.0-45.0-22.0-19.0-19.0-25.0-22.0-24.0-30.0-25.0-17.0","L2SPAN_2023_02","PRE","","null","","display digit","<div class=""stimulus"">9</div>","null","2,6,9,1,0,2,5,8,3,6,4,9","","","9",""
"html-keyboard-response","249","586220","0.0-45.0-22.0-19.0-19.0-25.0-22.0-24.0-30.0-25.0-18.0","L2SPAN_2023_02","PRE","","null","","display digit","<div class=""stimulus"">1</div>","null","2,6,9,1,0,2,5,8,3,6,4,9","","","1",""
"html-keyboard-response","250","588018","0.0-45.0-22.0-19.0-19.0-25.0-22.0-24.0-30.0-25.0-19.0","L2SPAN_2023_02","PRE","","null","","display digit","<div class=""stimulus"">0</div>","null","2,6,9,1,0,2,5,8,3,6,4,9","","","0",""
"html-keyboard-response","251","589816","0.0-45.0-22.0-19.0-19.0-25.0-22.0-24.0-30.0-25.0-20.0","L2SPAN_2023_02","PRE","","null","","display digit","<div class=""stimulus"">2</div>","null","2,6,9,1,0,2,5,8,3,6,4,9","","","2",""
"html-keyboard-response","252","591621","0.0-45.0-22.0-19.0-19.0-25.0-22.0-24.0-30.0-25.0-21.0","L2SPAN_2023_02","PRE","","null","","display digit","<div class=""stimulus"">5</div>","null","2,6,9,1,0,2,5,8,3,6,4,9","","","5",""
"html-keyboard-response","253","593428","0.0-45.0-22.0-19.0-19.0-25.0-22.0-24.0-30.0-25.0-22.0","L2SPAN_2023_02","PRE","","null","","display digit","<div class=""stimulus"">8</div>","null","2,6,9,1,0,2,5,8,3,6,4,9","","","8",""
"html-keyboard-response","254","595237","0.0-45.0-22.0-19.0-19.0-25.0-22.0-24.0-30.0-25.0-23.0","L2SPAN_2023_02","PRE","","null","","display digit","<div class=""stimulus"">3</div>","null","2,6,9,1,0,2,5,8,3,6,4,9","","","3",""
"html-keyboard-response","255","597040","0.0-45.0-22.0-19.0-19.0-25.0-22.0-24.0-30.0-25.0-24.0","L2SPAN_2023_02","PRE","","null","","display digit","<div class=""stimulus"">6</div>","null","2,6,9,1,0,2,5,8,3,6,4,9","","","6",""
"html-keyboard-response","256","598844","0.0-45.0-22.0-19.0-19.0-25.0-22.0-24.0-30.0-25.0-25.0","L2SPAN_2023_02","PRE","","null","","display digit","<div class=""stimulus"">4</div>","null","2,6,9,1,0,2,5,8,3,6,4,9","","","4",""
"html-keyboard-response","257","600640","0.0-45.0-22.0-19.0-19.0-25.0-22.0-24.0-30.0-25.0-26.0","L2SPAN_2023_02","PRE","","null","","display digit","<div class=""stimulus"">9</div>","null","2,6,9,1,0,2,5,8,3,6,4,9","","","9",""
"survey-html-form-autofocus","258","608754","0.0-45.0-22.0-19.0-19.0-25.0-22.0-24.0-30.0-25.0-27.0","L2SPAN_2023_02","PRE","","7442.699999988079","{""recall"":""2648125069""}","recall","","","269102583649","2648125069","9102583649","","false"
"html-keyboard-response","259","614570","0.0-46.0","L2SPAN_2023_02","PRE","","5148.300000011921","","","<p>End of the experiment.<br/>			   		You reached level 10 and your					total score is 11.</p>					<p class=""important"">PRESS SPACE TO FINISH THE EXPERIMENT.</p>","32","","","","",""
"fullscreen","260","615587","0.0-47.0","L2SPAN_2023_02","PRE","true","","","","","","","","","",""
