"trial_type","trial_index","time_elapsed","internal_node_id","userID","sessionType","success","rt","responses","stage","stimulus","key_press","sequence","recall","sequence_last_digits","digit","correct"
"pavlovia","0","15","0.0-0.0","L2SPAN_2023_63","PRE","","","","","","","","","","",""
"fullscreen","1","3292","0.0-1.0","L2SPAN_2023_63","PRE","true","","","","","","","","","",""
"survey-html-form","2","29324","0.0-2.0","L2SPAN_2023_63","PRE","","25357.100000023842","{""userID"":""L2SPAN_2023_63"",""type"":""PRE""}","userID","","","","","","",""
"html-keyboard-response","3","38662","0.0-3.0","L2SPAN_2023_63","PRE","","8673.899999976158","","","<p>Welcome to this task.</p>			<p>You will see a set of numbers, presented one at a time.<br/>			You need to pay attention to the numbers in the list and their order.<br/>			The list will end abruptly at any time. You will be told to enter the LAST X number of digits.</p>			<p>[Press SPACE to practice]</p>","32","","","","",""
"html-keyboard-response","4","39482","0.0-4.0","L2SPAN_2023_63","PRE","","null","","fixation cross","<div class='stimulus'>+</div>","null","","","","",""
"html-keyboard-response","5","41282","0.0-5.0","L2SPAN_2023_63","PRE","","null","","practice display digit","<div class=""stimulus"">9</div>","null","9,8,3","","","",""
"html-keyboard-response","6","43085","0.0-6.0","L2SPAN_2023_63","PRE","","null","","practice display digit","<div class=""stimulus"">8</div>","null","9,8,3","","","",""
"html-keyboard-response","7","44886","0.0-7.0","L2SPAN_2023_63","PRE","","null","","practice display digit","<div class=""stimulus"">3</div>","null","9,8,3","","","",""
"survey-html-form-autofocus","8","60786","0.0-8.0","L2SPAN_2023_63","PRE","","15227.100000023842","{""recall"":""83""}","practice recall","","","983","","83","",""
"html-keyboard-response","9","62928","0.0-9.0","L2SPAN_2023_63","PRE","","1478.7999999523163","","","<span class='correct'>Perfect!</span><br/>Press SPACE to continue.","32","","","","",""
"html-keyboard-response","10","63755","0.0-10.0","L2SPAN_2023_63","PRE","","null","","fixation cross","<div class='stimulus'>+</div>","null","","","","",""
"html-keyboard-response","11","65567","0.0-11.0","L2SPAN_2023_63","PRE","","null","","practice display digit","<div class=""stimulus"">4</div>","null","4,8,2,1,9","","","",""
"html-keyboard-response","12","67368","0.0-12.0","L2SPAN_2023_63","PRE","","null","","practice display digit","<div class=""stimulus"">8</div>","null","4,8,2,1,9","","","",""
"html-keyboard-response","13","69167","0.0-13.0","L2SPAN_2023_63","PRE","","null","","practice display digit","<div class=""stimulus"">2</div>","null","4,8,2,1,9","","","",""
"html-keyboard-response","14","70967","0.0-14.0","L2SPAN_2023_63","PRE","","null","","practice display digit","<div class=""stimulus"">1</div>","null","4,8,2,1,9","","","",""
"html-keyboard-response","15","72780","0.0-15.0","L2SPAN_2023_63","PRE","","null","","practice display digit","<div class=""stimulus"">9</div>","null","4,8,2,1,9","","","",""
"survey-html-form-autofocus","16","80072","0.0-16.0","L2SPAN_2023_63","PRE","","6620.600000023842","{""recall"":""219""}","practice recall","","","48219","","219","",""
"html-keyboard-response","17","81604","0.0-17.0","L2SPAN_2023_63","PRE","","854.4000000953674","","","<span class='correct'>Perfect!</span><br/>Press SPACE to continue.","32","","","","",""
"html-keyboard-response","18","82428","0.0-18.0","L2SPAN_2023_63","PRE","","null","","fixation cross","<div class='stimulus'>+</div>","null","","","","",""
"html-keyboard-response","19","84230","0.0-19.0","L2SPAN_2023_63","PRE","","null","","practice display digit","<div class=""stimulus"">5</div>","null","5,7,1,9,4,2,3,6","","","",""
"html-keyboard-response","20","86028","0.0-20.0","L2SPAN_2023_63","PRE","","null","","practice display digit","<div class=""stimulus"">7</div>","null","5,7,1,9,4,2,3,6","","","",""
"html-keyboard-response","21","87830","0.0-21.0","L2SPAN_2023_63","PRE","","null","","practice display digit","<div class=""stimulus"">1</div>","null","5,7,1,9,4,2,3,6","","","",""
"html-keyboard-response","22","89619","0.0-22.0","L2SPAN_2023_63","PRE","","null","","practice display digit","<div class=""stimulus"">9</div>","null","5,7,1,9,4,2,3,6","","","",""
"html-keyboard-response","23","91424","0.0-23.0","L2SPAN_2023_63","PRE","","null","","practice display digit","<div class=""stimulus"">4</div>","null","5,7,1,9,4,2,3,6","","","",""
"html-keyboard-response","24","93226","0.0-24.0","L2SPAN_2023_63","PRE","","null","","practice display digit","<div class=""stimulus"">2</div>","null","5,7,1,9,4,2,3,6","","","",""
"html-keyboard-response","25","95023","0.0-25.0","L2SPAN_2023_63","PRE","","null","","practice display digit","<div class=""stimulus"">3</div>","null","5,7,1,9,4,2,3,6","","","",""
"html-keyboard-response","26","96828","0.0-26.0","L2SPAN_2023_63","PRE","","null","","practice display digit","<div class=""stimulus"">6</div>","null","5,7,1,9,4,2,3,6","","","",""
"survey-html-form-autofocus","27","108183","0.0-27.0","L2SPAN_2023_63","PRE","","10686.5","{""recall"":""4326""}","practice recall","","","57194236","","4236","",""
"html-keyboard-response","28","114206","0.0-28.0","L2SPAN_2023_63","PRE","","5352","","","<p>The sequence was 57194236					and you input 4326.<br/>					<span class='incorrect'>You should have written 4236.</span></p>						<p>Press SPACE to continue</p>","32","","","","",""
"html-keyboard-response","29","123945","0.0-29.0","L2SPAN_2023_63","PRE","","9718.100000023842","","","<p>That was the practice section.<br/>			<p>Now goes the official part of the task.<br/>			You won't be given any feedback on your performance.</p>			<p>R U ready?</p>			<p>[Press Y to begin]</p>","89","","","","",""
"html-keyboard-response","30","125414","0.0-30.0","L2SPAN_2023_63","PRE","","null","","fixation cross","<div class='stimulus'>+</div>","null","","","","",""
"html-keyboard-response","31","127222","0.0-31.0","L2SPAN_2023_63","PRE","","null","","display digit","<div class=""stimulus"">6</div>","null","6,2,7,2,0,7,3,5,2,1,9,3","","","6",""
"html-keyboard-response","32","129019","0.0-32.0","L2SPAN_2023_63","PRE","","null","","display digit","<div class=""stimulus"">2</div>","null","6,2,7,2,0,7,3,5,2,1,9,3","","","2",""
"html-keyboard-response","33","130815","0.0-33.0","L2SPAN_2023_63","PRE","","null","","display digit","<div class=""stimulus"">7</div>","null","6,2,7,2,0,7,3,5,2,1,9,3","","","7",""
"html-keyboard-response","34","132624","0.0-34.0","L2SPAN_2023_63","PRE","","null","","display digit","<div class=""stimulus"">2</div>","null","6,2,7,2,0,7,3,5,2,1,9,3","","","2",""
"html-keyboard-response","35","134411","0.0-35.0","L2SPAN_2023_63","PRE","","null","","display digit","<div class=""stimulus"">0</div>","null","6,2,7,2,0,7,3,5,2,1,9,3","","","0",""
"html-keyboard-response","36","136208","0.0-36.0","L2SPAN_2023_63","PRE","","null","","display digit","<div class=""stimulus"">7</div>","null","6,2,7,2,0,7,3,5,2,1,9,3","","","7",""
"html-keyboard-response","37","138009","0.0-37.0","L2SPAN_2023_63","PRE","","null","","display digit","<div class=""stimulus"">3</div>","null","6,2,7,2,0,7,3,5,2,1,9,3","","","3",""
"html-keyboard-response","38","139803","0.0-38.0","L2SPAN_2023_63","PRE","","null","","display digit","<div class=""stimulus"">5</div>","null","6,2,7,2,0,7,3,5,2,1,9,3","","","5",""
"html-keyboard-response","39","141606","0.0-39.0","L2SPAN_2023_63","PRE","","null","","display digit","<div class=""stimulus"">2</div>","null","6,2,7,2,0,7,3,5,2,1,9,3","","","2",""
"html-keyboard-response","40","143404","0.0-40.0","L2SPAN_2023_63","PRE","","null","","display digit","<div class=""stimulus"">1</div>","null","6,2,7,2,0,7,3,5,2,1,9,3","","","1",""
"html-keyboard-response","41","145194","0.0-41.0","L2SPAN_2023_63","PRE","","null","","display digit","<div class=""stimulus"">9</div>","null","6,2,7,2,0,7,3,5,2,1,9,3","","","9",""
"html-keyboard-response","42","146994","0.0-42.0","L2SPAN_2023_63","PRE","","null","","display digit","<div class=""stimulus"">3</div>","null","6,2,7,2,0,7,3,5,2,1,9,3","","","3",""
"survey-html-form-autofocus","43","150501","0.0-43.0","L2SPAN_2023_63","PRE","","2832.2000000476837","{""recall"":""3""}","recall","","","627207352193","3","3","","true"
"html-keyboard-response","44","151986","0.0-44.0","L2SPAN_2023_63","PRE","","null","","fixation cross","<div class='stimulus'>+</div>","null","","","","",""
"html-keyboard-response","45","153792","0.0-45.0","L2SPAN_2023_63","PRE","","null","","display digit","<div class=""stimulus"">4</div>","null","4,2,9,4,2,4,0,7,1,8","","","4",""
"html-keyboard-response","46","155597","0.0-46.0","L2SPAN_2023_63","PRE","","null","","display digit","<div class=""stimulus"">2</div>","null","4,2,9,4,2,4,0,7,1,8","","","2",""
"html-keyboard-response","47","157402","0.0-47.0","L2SPAN_2023_63","PRE","","null","","display digit","<div class=""stimulus"">9</div>","null","4,2,9,4,2,4,0,7,1,8","","","9",""
"html-keyboard-response","48","159210","0.0-48.0","L2SPAN_2023_63","PRE","","null","","display digit","<div class=""stimulus"">4</div>","null","4,2,9,4,2,4,0,7,1,8","","","4",""
"html-keyboard-response","49","161020","0.0-49.0","L2SPAN_2023_63","PRE","","null","","display digit","<div class=""stimulus"">2</div>","null","4,2,9,4,2,4,0,7,1,8","","","2",""
"html-keyboard-response","50","162827","0.0-50.0","L2SPAN_2023_63","PRE","","null","","display digit","<div class=""stimulus"">4</div>","null","4,2,9,4,2,4,0,7,1,8","","","4",""
"html-keyboard-response","51","164628","0.0-51.0","L2SPAN_2023_63","PRE","","null","","display digit","<div class=""stimulus"">0</div>","null","4,2,9,4,2,4,0,7,1,8","","","0",""
"html-keyboard-response","52","166421","0.0-52.0","L2SPAN_2023_63","PRE","","null","","display digit","<div class=""stimulus"">7</div>","null","4,2,9,4,2,4,0,7,1,8","","","7",""
"html-keyboard-response","53","168229","0.0-53.0","L2SPAN_2023_63","PRE","","null","","display digit","<div class=""stimulus"">1</div>","null","4,2,9,4,2,4,0,7,1,8","","","1",""
"html-keyboard-response","54","170032","0.0-54.0","L2SPAN_2023_63","PRE","","null","","display digit","<div class=""stimulus"">8</div>","null","4,2,9,4,2,4,0,7,1,8","","","8",""
"survey-html-form-autofocus","55","174088","0.0-55.0","L2SPAN_2023_63","PRE","","3374.9000000953674","{""recall"":""8""}","recall","","","4294240718","8","8","","true"
"html-keyboard-response","56","175558","0.0-56.0-0.0","L2SPAN_2023_63","PRE","","null","","fixation cross","<div class='stimulus'>+</div>","null","","","","",""
"html-keyboard-response","57","177364","0.0-56.0-1.0","L2SPAN_2023_63","PRE","","null","","display digit","<div class=""stimulus"">3</div>","null","3,6,5,0,9,2,3,7,2,9,3","","","3",""
"html-keyboard-response","58","179160","0.0-56.0-2.0","L2SPAN_2023_63","PRE","","null","","display digit","<div class=""stimulus"">6</div>","null","3,6,5,0,9,2,3,7,2,9,3","","","6",""
"html-keyboard-response","59","180968","0.0-56.0-3.0","L2SPAN_2023_63","PRE","","null","","display digit","<div class=""stimulus"">5</div>","null","3,6,5,0,9,2,3,7,2,9,3","","","5",""
"html-keyboard-response","60","182778","0.0-56.0-4.0","L2SPAN_2023_63","PRE","","null","","display digit","<div class=""stimulus"">0</div>","null","3,6,5,0,9,2,3,7,2,9,3","","","0",""
"html-keyboard-response","61","184576","0.0-56.0-5.0","L2SPAN_2023_63","PRE","","null","","display digit","<div class=""stimulus"">9</div>","null","3,6,5,0,9,2,3,7,2,9,3","","","9",""
"html-keyboard-response","62","186367","0.0-56.0-6.0","L2SPAN_2023_63","PRE","","null","","display digit","<div class=""stimulus"">2</div>","null","3,6,5,0,9,2,3,7,2,9,3","","","2",""
"html-keyboard-response","63","188162","0.0-56.0-7.0","L2SPAN_2023_63","PRE","","null","","display digit","<div class=""stimulus"">3</div>","null","3,6,5,0,9,2,3,7,2,9,3","","","3",""
"html-keyboard-response","64","189958","0.0-56.0-8.0","L2SPAN_2023_63","PRE","","null","","display digit","<div class=""stimulus"">7</div>","null","3,6,5,0,9,2,3,7,2,9,3","","","7",""
"html-keyboard-response","65","191762","0.0-56.0-9.0","L2SPAN_2023_63","PRE","","null","","display digit","<div class=""stimulus"">2</div>","null","3,6,5,0,9,2,3,7,2,9,3","","","2",""
"html-keyboard-response","66","193571","0.0-56.0-10.0","L2SPAN_2023_63","PRE","","null","","display digit","<div class=""stimulus"">9</div>","null","3,6,5,0,9,2,3,7,2,9,3","","","9",""
"html-keyboard-response","67","195376","0.0-56.0-11.0","L2SPAN_2023_63","PRE","","null","","display digit","<div class=""stimulus"">3</div>","null","3,6,5,0,9,2,3,7,2,9,3","","","3",""
"survey-html-form-autofocus","68","200747","0.0-56.0-12.0","L2SPAN_2023_63","PRE","","4693.799999952316","{""recall"":""93""}","recall","","","36509237293","93","93","","true"
"html-keyboard-response","69","202239","0.0-56.0-13.0","L2SPAN_2023_63","PRE","","null","","fixation cross","<div class='stimulus'>+</div>","null","","","","",""
"html-keyboard-response","70","204037","0.0-56.0-14.0","L2SPAN_2023_63","PRE","","null","","display digit","<div class=""stimulus"">2</div>","null","2,0,6,0,5,0,9,7,2,8,6,4,6","","","2",""
"html-keyboard-response","71","205846","0.0-56.0-15.0","L2SPAN_2023_63","PRE","","null","","display digit","<div class=""stimulus"">0</div>","null","2,0,6,0,5,0,9,7,2,8,6,4,6","","","0",""
"html-keyboard-response","72","207653","0.0-56.0-16.0","L2SPAN_2023_63","PRE","","null","","display digit","<div class=""stimulus"">6</div>","null","2,0,6,0,5,0,9,7,2,8,6,4,6","","","6",""
"html-keyboard-response","73","209460","0.0-56.0-17.0","L2SPAN_2023_63","PRE","","null","","display digit","<div class=""stimulus"">0</div>","null","2,0,6,0,5,0,9,7,2,8,6,4,6","","","0",""
"html-keyboard-response","74","211264","0.0-56.0-18.0","L2SPAN_2023_63","PRE","","null","","display digit","<div class=""stimulus"">5</div>","null","2,0,6,0,5,0,9,7,2,8,6,4,6","","","5",""
"html-keyboard-response","75","213061","0.0-56.0-19.0","L2SPAN_2023_63","PRE","","null","","display digit","<div class=""stimulus"">0</div>","null","2,0,6,0,5,0,9,7,2,8,6,4,6","","","0",""
"html-keyboard-response","76","214864","0.0-56.0-20.0","L2SPAN_2023_63","PRE","","null","","display digit","<div class=""stimulus"">9</div>","null","2,0,6,0,5,0,9,7,2,8,6,4,6","","","9",""
"html-keyboard-response","77","216663","0.0-56.0-21.0","L2SPAN_2023_63","PRE","","null","","display digit","<div class=""stimulus"">7</div>","null","2,0,6,0,5,0,9,7,2,8,6,4,6","","","7",""
"html-keyboard-response","78","218474","0.0-56.0-22.0","L2SPAN_2023_63","PRE","","null","","display digit","<div class=""stimulus"">2</div>","null","2,0,6,0,5,0,9,7,2,8,6,4,6","","","2",""
"html-keyboard-response","79","220277","0.0-56.0-23.0","L2SPAN_2023_63","PRE","","null","","display digit","<div class=""stimulus"">8</div>","null","2,0,6,0,5,0,9,7,2,8,6,4,6","","","8",""
"html-keyboard-response","80","222079","0.0-56.0-24.0","L2SPAN_2023_63","PRE","","null","","display digit","<div class=""stimulus"">6</div>","null","2,0,6,0,5,0,9,7,2,8,6,4,6","","","6",""
"html-keyboard-response","81","223891","0.0-56.0-25.0","L2SPAN_2023_63","PRE","","null","","display digit","<div class=""stimulus"">4</div>","null","2,0,6,0,5,0,9,7,2,8,6,4,6","","","4",""
"html-keyboard-response","82","225694","0.0-56.0-26.0","L2SPAN_2023_63","PRE","","null","","display digit","<div class=""stimulus"">6</div>","null","2,0,6,0,5,0,9,7,2,8,6,4,6","","","6",""
"survey-html-form-autofocus","83","229585","0.0-56.0-27.0","L2SPAN_2023_63","PRE","","3223.6999999284744","{""recall"":""46""}","recall","","","2060509728646","46","46","","true"
"html-keyboard-response","84","231057","0.0-56.0-28.0-0.0","L2SPAN_2023_63","PRE","","null","","fixation cross","<div class='stimulus'>+</div>","null","","","","",""
"html-keyboard-response","85","232859","0.0-56.0-28.0-1.0","L2SPAN_2023_63","PRE","","null","","display digit","<div class=""stimulus"">2</div>","null","2,6,2,9,1,8,4,6,4","","","2",""
"html-keyboard-response","86","234671","0.0-56.0-28.0-2.0","L2SPAN_2023_63","PRE","","null","","display digit","<div class=""stimulus"">6</div>","null","2,6,2,9,1,8,4,6,4","","","6",""
"html-keyboard-response","87","236463","0.0-56.0-28.0-3.0","L2SPAN_2023_63","PRE","","null","","display digit","<div class=""stimulus"">2</div>","null","2,6,2,9,1,8,4,6,4","","","2",""
"html-keyboard-response","88","238264","0.0-56.0-28.0-4.0","L2SPAN_2023_63","PRE","","null","","display digit","<div class=""stimulus"">9</div>","null","2,6,2,9,1,8,4,6,4","","","9",""
"html-keyboard-response","89","240062","0.0-56.0-28.0-5.0","L2SPAN_2023_63","PRE","","null","","display digit","<div class=""stimulus"">1</div>","null","2,6,2,9,1,8,4,6,4","","","1",""
"html-keyboard-response","90","241859","0.0-56.0-28.0-6.0","L2SPAN_2023_63","PRE","","null","","display digit","<div class=""stimulus"">8</div>","null","2,6,2,9,1,8,4,6,4","","","8",""
"html-keyboard-response","91","243663","0.0-56.0-28.0-7.0","L2SPAN_2023_63","PRE","","null","","display digit","<div class=""stimulus"">4</div>","null","2,6,2,9,1,8,4,6,4","","","4",""
"html-keyboard-response","92","245461","0.0-56.0-28.0-8.0","L2SPAN_2023_63","PRE","","null","","display digit","<div class=""stimulus"">6</div>","null","2,6,2,9,1,8,4,6,4","","","6",""
"html-keyboard-response","93","247258","0.0-56.0-28.0-9.0","L2SPAN_2023_63","PRE","","null","","display digit","<div class=""stimulus"">4</div>","null","2,6,2,9,1,8,4,6,4","","","4",""
"survey-html-form-autofocus","94","252001","0.0-56.0-28.0-10.0","L2SPAN_2023_63","PRE","","4076.100000023842","{""recall"":""464""}","recall","","","262918464","464","464","","true"
"html-keyboard-response","95","253468","0.0-56.0-28.0-11.0","L2SPAN_2023_63","PRE","","null","","fixation cross","<div class='stimulus'>+</div>","null","","","","",""
"html-keyboard-response","96","255265","0.0-56.0-28.0-12.0","L2SPAN_2023_63","PRE","","null","","display digit","<div class=""stimulus"">9</div>","null","9,1,0,9,8,1,3,5,3,7","","","9",""
"html-keyboard-response","97","257075","0.0-56.0-28.0-13.0","L2SPAN_2023_63","PRE","","null","","display digit","<div class=""stimulus"">1</div>","null","9,1,0,9,8,1,3,5,3,7","","","1",""
"html-keyboard-response","98","258880","0.0-56.0-28.0-14.0","L2SPAN_2023_63","PRE","","null","","display digit","<div class=""stimulus"">0</div>","null","9,1,0,9,8,1,3,5,3,7","","","0",""
"html-keyboard-response","99","260672","0.0-56.0-28.0-15.0","L2SPAN_2023_63","PRE","","null","","display digit","<div class=""stimulus"">9</div>","null","9,1,0,9,8,1,3,5,3,7","","","9",""
"html-keyboard-response","100","262473","0.0-56.0-28.0-16.0","L2SPAN_2023_63","PRE","","null","","display digit","<div class=""stimulus"">8</div>","null","9,1,0,9,8,1,3,5,3,7","","","8",""
"html-keyboard-response","101","264284","0.0-56.0-28.0-17.0","L2SPAN_2023_63","PRE","","null","","display digit","<div class=""stimulus"">1</div>","null","9,1,0,9,8,1,3,5,3,7","","","1",""
"html-keyboard-response","102","266083","0.0-56.0-28.0-18.0","L2SPAN_2023_63","PRE","","null","","display digit","<div class=""stimulus"">3</div>","null","9,1,0,9,8,1,3,5,3,7","","","3",""
"html-keyboard-response","103","267875","0.0-56.0-28.0-19.0","L2SPAN_2023_63","PRE","","null","","display digit","<div class=""stimulus"">5</div>","null","9,1,0,9,8,1,3,5,3,7","","","5",""
"html-keyboard-response","104","269669","0.0-56.0-28.0-20.0","L2SPAN_2023_63","PRE","","null","","display digit","<div class=""stimulus"">3</div>","null","9,1,0,9,8,1,3,5,3,7","","","3",""
"html-keyboard-response","105","271482","0.0-56.0-28.0-21.0","L2SPAN_2023_63","PRE","","null","","display digit","<div class=""stimulus"">7</div>","null","9,1,0,9,8,1,3,5,3,7","","","7",""
"survey-html-form-autofocus","106","276126","0.0-56.0-28.0-22.0","L2SPAN_2023_63","PRE","","3969.9000000953674","{""recall"":""537""}","recall","","","9109813537","537","537","","true"
"html-keyboard-response","107","277606","0.0-56.0-28.0-23.0-0.0","L2SPAN_2023_63","PRE","","null","","fixation cross","<div class='stimulus'>+</div>","null","","","","",""
"html-keyboard-response","108","279410","0.0-56.0-28.0-23.0-1.0","L2SPAN_2023_63","PRE","","null","","display digit","<div class=""stimulus"">5</div>","null","5,0,4,6,9,7,9,8,0,3,9,8","","","5",""
"html-keyboard-response","109","281223","0.0-56.0-28.0-23.0-2.0","L2SPAN_2023_63","PRE","","null","","display digit","<div class=""stimulus"">0</div>","null","5,0,4,6,9,7,9,8,0,3,9,8","","","0",""
"html-keyboard-response","110","283018","0.0-56.0-28.0-23.0-3.0","L2SPAN_2023_63","PRE","","null","","display digit","<div class=""stimulus"">4</div>","null","5,0,4,6,9,7,9,8,0,3,9,8","","","4",""
"html-keyboard-response","111","284822","0.0-56.0-28.0-23.0-4.0","L2SPAN_2023_63","PRE","","null","","display digit","<div class=""stimulus"">6</div>","null","5,0,4,6,9,7,9,8,0,3,9,8","","","6",""
"html-keyboard-response","112","286625","0.0-56.0-28.0-23.0-5.0","L2SPAN_2023_63","PRE","","null","","display digit","<div class=""stimulus"">9</div>","null","5,0,4,6,9,7,9,8,0,3,9,8","","","9",""
"html-keyboard-response","113","288422","0.0-56.0-28.0-23.0-6.0","L2SPAN_2023_63","PRE","","null","","display digit","<div class=""stimulus"">7</div>","null","5,0,4,6,9,7,9,8,0,3,9,8","","","7",""
"html-keyboard-response","114","290224","0.0-56.0-28.0-23.0-7.0","L2SPAN_2023_63","PRE","","null","","display digit","<div class=""stimulus"">9</div>","null","5,0,4,6,9,7,9,8,0,3,9,8","","","9",""
"html-keyboard-response","115","292023","0.0-56.0-28.0-23.0-8.0","L2SPAN_2023_63","PRE","","null","","display digit","<div class=""stimulus"">8</div>","null","5,0,4,6,9,7,9,8,0,3,9,8","","","8",""
"html-keyboard-response","116","293834","0.0-56.0-28.0-23.0-9.0","L2SPAN_2023_63","PRE","","null","","display digit","<div class=""stimulus"">0</div>","null","5,0,4,6,9,7,9,8,0,3,9,8","","","0",""
"html-keyboard-response","117","295638","0.0-56.0-28.0-23.0-10.0","L2SPAN_2023_63","PRE","","null","","display digit","<div class=""stimulus"">3</div>","null","5,0,4,6,9,7,9,8,0,3,9,8","","","3",""
"html-keyboard-response","118","297427","0.0-56.0-28.0-23.0-11.0","L2SPAN_2023_63","PRE","","null","","display digit","<div class=""stimulus"">9</div>","null","5,0,4,6,9,7,9,8,0,3,9,8","","","9",""
"html-keyboard-response","119","299225","0.0-56.0-28.0-23.0-12.0","L2SPAN_2023_63","PRE","","null","","display digit","<div class=""stimulus"">8</div>","null","5,0,4,6,9,7,9,8,0,3,9,8","","","8",""
"survey-html-form-autofocus","120","306108","0.0-56.0-28.0-23.0-13.0","L2SPAN_2023_63","PRE","","6216.899999976158","{""recall"":""0398""}","recall","","","504697980398","0398","0398","","true"
"html-keyboard-response","121","307581","0.0-56.0-28.0-23.0-14.0","L2SPAN_2023_63","PRE","","null","","fixation cross","<div class='stimulus'>+</div>","null","","","","",""
"html-keyboard-response","122","309383","0.0-56.0-28.0-23.0-15.0","L2SPAN_2023_63","PRE","","null","","display digit","<div class=""stimulus"">4</div>","null","4,8,4,6,8,3","","","4",""
"html-keyboard-response","123","311171","0.0-56.0-28.0-23.0-16.0","L2SPAN_2023_63","PRE","","null","","display digit","<div class=""stimulus"">8</div>","null","4,8,4,6,8,3","","","8",""
"html-keyboard-response","124","312978","0.0-56.0-28.0-23.0-17.0","L2SPAN_2023_63","PRE","","null","","display digit","<div class=""stimulus"">4</div>","null","4,8,4,6,8,3","","","4",""
"html-keyboard-response","125","314772","0.0-56.0-28.0-23.0-18.0","L2SPAN_2023_63","PRE","","null","","display digit","<div class=""stimulus"">6</div>","null","4,8,4,6,8,3","","","6",""
"html-keyboard-response","126","316575","0.0-56.0-28.0-23.0-19.0","L2SPAN_2023_63","PRE","","null","","display digit","<div class=""stimulus"">8</div>","null","4,8,4,6,8,3","","","8",""
"html-keyboard-response","127","318370","0.0-56.0-28.0-23.0-20.0","L2SPAN_2023_63","PRE","","null","","display digit","<div class=""stimulus"">3</div>","null","4,8,4,6,8,3","","","3",""
"survey-html-form-autofocus","128","325064","0.0-56.0-28.0-23.0-21.0","L2SPAN_2023_63","PRE","","6018.699999928474","{""recall"":""4683""}","recall","","","484683","4683","4683","","true"
"html-keyboard-response","129","326530","0.0-56.0-28.0-23.0-22.0-0.0","L2SPAN_2023_63","PRE","","null","","fixation cross","<div class='stimulus'>+</div>","null","","","","",""
"html-keyboard-response","130","328332","0.0-56.0-28.0-23.0-22.0-1.0","L2SPAN_2023_63","PRE","","null","","display digit","<div class=""stimulus"">3</div>","null","3,6,1,7,1,9,8,4,8,9,5,1,9","","","3",""
"html-keyboard-response","131","330125","0.0-56.0-28.0-23.0-22.0-2.0","L2SPAN_2023_63","PRE","","null","","display digit","<div class=""stimulus"">6</div>","null","3,6,1,7,1,9,8,4,8,9,5,1,9","","","6",""
"html-keyboard-response","132","331934","0.0-56.0-28.0-23.0-22.0-3.0","L2SPAN_2023_63","PRE","","null","","display digit","<div class=""stimulus"">1</div>","null","3,6,1,7,1,9,8,4,8,9,5,1,9","","","1",""
"html-keyboard-response","133","333747","0.0-56.0-28.0-23.0-22.0-4.0","L2SPAN_2023_63","PRE","","null","","display digit","<div class=""stimulus"">7</div>","null","3,6,1,7,1,9,8,4,8,9,5,1,9","","","7",""
"html-keyboard-response","134","335541","0.0-56.0-28.0-23.0-22.0-5.0","L2SPAN_2023_63","PRE","","null","","display digit","<div class=""stimulus"">1</div>","null","3,6,1,7,1,9,8,4,8,9,5,1,9","","","1",""
"html-keyboard-response","135","337337","0.0-56.0-28.0-23.0-22.0-6.0","L2SPAN_2023_63","PRE","","null","","display digit","<div class=""stimulus"">9</div>","null","3,6,1,7,1,9,8,4,8,9,5,1,9","","","9",""
"html-keyboard-response","136","339143","0.0-56.0-28.0-23.0-22.0-7.0","L2SPAN_2023_63","PRE","","null","","display digit","<div class=""stimulus"">8</div>","null","3,6,1,7,1,9,8,4,8,9,5,1,9","","","8",""
"html-keyboard-response","137","340936","0.0-56.0-28.0-23.0-22.0-8.0","L2SPAN_2023_63","PRE","","null","","display digit","<div class=""stimulus"">4</div>","null","3,6,1,7,1,9,8,4,8,9,5,1,9","","","4",""
"html-keyboard-response","138","342724","0.0-56.0-28.0-23.0-22.0-9.0","L2SPAN_2023_63","PRE","","null","","display digit","<div class=""stimulus"">8</div>","null","3,6,1,7,1,9,8,4,8,9,5,1,9","","","8",""
"html-keyboard-response","139","344529","0.0-56.0-28.0-23.0-22.0-10.0","L2SPAN_2023_63","PRE","","null","","display digit","<div class=""stimulus"">9</div>","null","3,6,1,7,1,9,8,4,8,9,5,1,9","","","9",""
"html-keyboard-response","140","346330","0.0-56.0-28.0-23.0-22.0-11.0","L2SPAN_2023_63","PRE","","null","","display digit","<div class=""stimulus"">5</div>","null","3,6,1,7,1,9,8,4,8,9,5,1,9","","","5",""
"html-keyboard-response","141","348118","0.0-56.0-28.0-23.0-22.0-12.0","L2SPAN_2023_63","PRE","","null","","display digit","<div class=""stimulus"">1</div>","null","3,6,1,7,1,9,8,4,8,9,5,1,9","","","1",""
"html-keyboard-response","142","349922","0.0-56.0-28.0-23.0-22.0-13.0","L2SPAN_2023_63","PRE","","null","","display digit","<div class=""stimulus"">9</div>","null","3,6,1,7,1,9,8,4,8,9,5,1,9","","","9",""
"survey-html-form-autofocus","143","363279","0.0-56.0-28.0-23.0-22.0-14.0","L2SPAN_2023_63","PRE","","12682.400000095367","{""recall"":""89519""}","recall","","","3617198489519","89519","89519","","true"
"html-keyboard-response","144","364765","0.0-56.0-28.0-23.0-22.0-15.0","L2SPAN_2023_63","PRE","","null","","fixation cross","<div class='stimulus'>+</div>","null","","","","",""
"html-keyboard-response","145","366559","0.0-56.0-28.0-23.0-22.0-16.0","L2SPAN_2023_63","PRE","","null","","display digit","<div class=""stimulus"">3</div>","null","3,7,3,1,3,0,9,0","","","3",""
"html-keyboard-response","146","368372","0.0-56.0-28.0-23.0-22.0-17.0","L2SPAN_2023_63","PRE","","null","","display digit","<div class=""stimulus"">7</div>","null","3,7,3,1,3,0,9,0","","","7",""
"html-keyboard-response","147","370165","0.0-56.0-28.0-23.0-22.0-18.0","L2SPAN_2023_63","PRE","","null","","display digit","<div class=""stimulus"">3</div>","null","3,7,3,1,3,0,9,0","","","3",""
"html-keyboard-response","148","371964","0.0-56.0-28.0-23.0-22.0-19.0","L2SPAN_2023_63","PRE","","null","","display digit","<div class=""stimulus"">1</div>","null","3,7,3,1,3,0,9,0","","","1",""
"html-keyboard-response","149","373776","0.0-56.0-28.0-23.0-22.0-20.0","L2SPAN_2023_63","PRE","","null","","display digit","<div class=""stimulus"">3</div>","null","3,7,3,1,3,0,9,0","","","3",""
"html-keyboard-response","150","375580","0.0-56.0-28.0-23.0-22.0-21.0","L2SPAN_2023_63","PRE","","null","","display digit","<div class=""stimulus"">0</div>","null","3,7,3,1,3,0,9,0","","","0",""
"html-keyboard-response","151","377385","0.0-56.0-28.0-23.0-22.0-22.0","L2SPAN_2023_63","PRE","","null","","display digit","<div class=""stimulus"">9</div>","null","3,7,3,1,3,0,9,0","","","9",""
"html-keyboard-response","152","379191","0.0-56.0-28.0-23.0-22.0-23.0","L2SPAN_2023_63","PRE","","null","","display digit","<div class=""stimulus"">0</div>","null","3,7,3,1,3,0,9,0","","","0",""
"survey-html-form-autofocus","153","386803","0.0-56.0-28.0-23.0-22.0-24.0","L2SPAN_2023_63","PRE","","6945.899999976158","{""recall"":""13090""}","recall","","","37313090","13090","13090","","true"
"html-keyboard-response","154","388285","0.0-56.0-28.0-23.0-22.0-25.0-0.0","L2SPAN_2023_63","PRE","","null","","fixation cross","<div class='stimulus'>+</div>","null","","","","",""
"html-keyboard-response","155","390075","0.0-56.0-28.0-23.0-22.0-25.0-1.0","L2SPAN_2023_63","PRE","","null","","display digit","<div class=""stimulus"">7</div>","null","7,8,6,1,7,3,8,3,0","","","7",""
"html-keyboard-response","156","391882","0.0-56.0-28.0-23.0-22.0-25.0-2.0","L2SPAN_2023_63","PRE","","null","","display digit","<div class=""stimulus"">8</div>","null","7,8,6,1,7,3,8,3,0","","","8",""
"html-keyboard-response","157","393685","0.0-56.0-28.0-23.0-22.0-25.0-3.0","L2SPAN_2023_63","PRE","","null","","display digit","<div class=""stimulus"">6</div>","null","7,8,6,1,7,3,8,3,0","","","6",""
"html-keyboard-response","158","395501","0.0-56.0-28.0-23.0-22.0-25.0-4.0","L2SPAN_2023_63","PRE","","null","","display digit","<div class=""stimulus"">1</div>","null","7,8,6,1,7,3,8,3,0","","","1",""
"html-keyboard-response","159","397302","0.0-56.0-28.0-23.0-22.0-25.0-5.0","L2SPAN_2023_63","PRE","","null","","display digit","<div class=""stimulus"">7</div>","null","7,8,6,1,7,3,8,3,0","","","7",""
"html-keyboard-response","160","399092","0.0-56.0-28.0-23.0-22.0-25.0-6.0","L2SPAN_2023_63","PRE","","null","","display digit","<div class=""stimulus"">3</div>","null","7,8,6,1,7,3,8,3,0","","","3",""
"html-keyboard-response","161","400882","0.0-56.0-28.0-23.0-22.0-25.0-7.0","L2SPAN_2023_63","PRE","","null","","display digit","<div class=""stimulus"">8</div>","null","7,8,6,1,7,3,8,3,0","","","8",""
"html-keyboard-response","162","402682","0.0-56.0-28.0-23.0-22.0-25.0-8.0","L2SPAN_2023_63","PRE","","null","","display digit","<div class=""stimulus"">3</div>","null","7,8,6,1,7,3,8,3,0","","","3",""
"html-keyboard-response","163","404472","0.0-56.0-28.0-23.0-22.0-25.0-9.0","L2SPAN_2023_63","PRE","","null","","display digit","<div class=""stimulus"">0</div>","null","7,8,6,1,7,3,8,3,0","","","0",""
"survey-html-form-autofocus","164","414984","0.0-56.0-28.0-23.0-22.0-25.0-10.0","L2SPAN_2023_63","PRE","","9844.100000023842","{""recall"":""173830""}","recall","","","786173830","173830","173830","","true"
"html-keyboard-response","165","416455","0.0-56.0-28.0-23.0-22.0-25.0-11.0","L2SPAN_2023_63","PRE","","null","","fixation cross","<div class='stimulus'>+</div>","null","","","","",""
"html-keyboard-response","166","418245","0.0-56.0-28.0-23.0-22.0-25.0-12.0","L2SPAN_2023_63","PRE","","null","","display digit","<div class=""stimulus"">2</div>","null","2,3,1,5,7,1,4,0,1,6,9,3","","","2",""
"html-keyboard-response","167","420045","0.0-56.0-28.0-23.0-22.0-25.0-13.0","L2SPAN_2023_63","PRE","","null","","display digit","<div class=""stimulus"">3</div>","null","2,3,1,5,7,1,4,0,1,6,9,3","","","3",""
"html-keyboard-response","168","421845","0.0-56.0-28.0-23.0-22.0-25.0-14.0","L2SPAN_2023_63","PRE","","null","","display digit","<div class=""stimulus"">1</div>","null","2,3,1,5,7,1,4,0,1,6,9,3","","","1",""
"html-keyboard-response","169","423636","0.0-56.0-28.0-23.0-22.0-25.0-15.0","L2SPAN_2023_63","PRE","","null","","display digit","<div class=""stimulus"">5</div>","null","2,3,1,5,7,1,4,0,1,6,9,3","","","5",""
"html-keyboard-response","170","425448","0.0-56.0-28.0-23.0-22.0-25.0-16.0","L2SPAN_2023_63","PRE","","null","","display digit","<div class=""stimulus"">7</div>","null","2,3,1,5,7,1,4,0,1,6,9,3","","","7",""
"html-keyboard-response","171","427249","0.0-56.0-28.0-23.0-22.0-25.0-17.0","L2SPAN_2023_63","PRE","","null","","display digit","<div class=""stimulus"">1</div>","null","2,3,1,5,7,1,4,0,1,6,9,3","","","1",""
"html-keyboard-response","172","429043","0.0-56.0-28.0-23.0-22.0-25.0-18.0","L2SPAN_2023_63","PRE","","null","","display digit","<div class=""stimulus"">4</div>","null","2,3,1,5,7,1,4,0,1,6,9,3","","","4",""
"html-keyboard-response","173","430860","0.0-56.0-28.0-23.0-22.0-25.0-19.0","L2SPAN_2023_63","PRE","","null","","display digit","<div class=""stimulus"">0</div>","null","2,3,1,5,7,1,4,0,1,6,9,3","","","0",""
"html-keyboard-response","174","432664","0.0-56.0-28.0-23.0-22.0-25.0-20.0","L2SPAN_2023_63","PRE","","null","","display digit","<div class=""stimulus"">1</div>","null","2,3,1,5,7,1,4,0,1,6,9,3","","","1",""
"html-keyboard-response","175","434455","0.0-56.0-28.0-23.0-22.0-25.0-21.0","L2SPAN_2023_63","PRE","","null","","display digit","<div class=""stimulus"">6</div>","null","2,3,1,5,7,1,4,0,1,6,9,3","","","6",""
"html-keyboard-response","176","436265","0.0-56.0-28.0-23.0-22.0-25.0-22.0","L2SPAN_2023_63","PRE","","null","","display digit","<div class=""stimulus"">9</div>","null","2,3,1,5,7,1,4,0,1,6,9,3","","","9",""
"html-keyboard-response","177","438060","0.0-56.0-28.0-23.0-22.0-25.0-23.0","L2SPAN_2023_63","PRE","","null","","display digit","<div class=""stimulus"">3</div>","null","2,3,1,5,7,1,4,0,1,6,9,3","","","3",""
"survey-html-form-autofocus","178","450725","0.0-56.0-28.0-23.0-22.0-25.0-24.0","L2SPAN_2023_63","PRE","","11994.699999928474","{""recall"":""401693""}","recall","","","231571401693","401693","401693","","true"
"html-keyboard-response","179","452202","0.0-56.0-28.0-23.0-22.0-25.0-25.0-0.0","L2SPAN_2023_63","PRE","","null","","fixation cross","<div class='stimulus'>+</div>","null","","","","",""
"html-keyboard-response","180","453998","0.0-56.0-28.0-23.0-22.0-25.0-25.0-1.0","L2SPAN_2023_63","PRE","","null","","display digit","<div class=""stimulus"">6</div>","null","6,1,5,8,9,3,6,2,9,6,8,5","","","6",""
"html-keyboard-response","181","455799","0.0-56.0-28.0-23.0-22.0-25.0-25.0-2.0","L2SPAN_2023_63","PRE","","null","","display digit","<div class=""stimulus"">1</div>","null","6,1,5,8,9,3,6,2,9,6,8,5","","","1",""
"html-keyboard-response","182","457594","0.0-56.0-28.0-23.0-22.0-25.0-25.0-3.0","L2SPAN_2023_63","PRE","","null","","display digit","<div class=""stimulus"">5</div>","null","6,1,5,8,9,3,6,2,9,6,8,5","","","5",""
"html-keyboard-response","183","459394","0.0-56.0-28.0-23.0-22.0-25.0-25.0-4.0","L2SPAN_2023_63","PRE","","null","","display digit","<div class=""stimulus"">8</div>","null","6,1,5,8,9,3,6,2,9,6,8,5","","","8",""
"html-keyboard-response","184","461198","0.0-56.0-28.0-23.0-22.0-25.0-25.0-5.0","L2SPAN_2023_63","PRE","","null","","display digit","<div class=""stimulus"">9</div>","null","6,1,5,8,9,3,6,2,9,6,8,5","","","9",""
"html-keyboard-response","185","462992","0.0-56.0-28.0-23.0-22.0-25.0-25.0-6.0","L2SPAN_2023_63","PRE","","null","","display digit","<div class=""stimulus"">3</div>","null","6,1,5,8,9,3,6,2,9,6,8,5","","","3",""
"html-keyboard-response","186","464806","0.0-56.0-28.0-23.0-22.0-25.0-25.0-7.0","L2SPAN_2023_63","PRE","","null","","display digit","<div class=""stimulus"">6</div>","null","6,1,5,8,9,3,6,2,9,6,8,5","","","6",""
"html-keyboard-response","187","466624","0.0-56.0-28.0-23.0-22.0-25.0-25.0-8.0","L2SPAN_2023_63","PRE","","null","","display digit","<div class=""stimulus"">2</div>","null","6,1,5,8,9,3,6,2,9,6,8,5","","","2",""
"html-keyboard-response","188","468419","0.0-56.0-28.0-23.0-22.0-25.0-25.0-9.0","L2SPAN_2023_63","PRE","","null","","display digit","<div class=""stimulus"">9</div>","null","6,1,5,8,9,3,6,2,9,6,8,5","","","9",""
"html-keyboard-response","189","470216","0.0-56.0-28.0-23.0-22.0-25.0-25.0-10.0","L2SPAN_2023_63","PRE","","null","","display digit","<div class=""stimulus"">6</div>","null","6,1,5,8,9,3,6,2,9,6,8,5","","","6",""
"html-keyboard-response","190","472020","0.0-56.0-28.0-23.0-22.0-25.0-25.0-11.0","L2SPAN_2023_63","PRE","","null","","display digit","<div class=""stimulus"">8</div>","null","6,1,5,8,9,3,6,2,9,6,8,5","","","8",""
"html-keyboard-response","191","473817","0.0-56.0-28.0-23.0-22.0-25.0-25.0-12.0","L2SPAN_2023_63","PRE","","null","","display digit","<div class=""stimulus"">5</div>","null","6,1,5,8,9,3,6,2,9,6,8,5","","","5",""
"survey-html-form-autofocus","192","489094","0.0-56.0-28.0-23.0-22.0-25.0-25.0-13.0","L2SPAN_2023_63","PRE","","14607.199999928474","{""recall"":""3629685""}","recall","","","615893629685","3629685","3629685","","true"
"html-keyboard-response","193","490581","0.0-56.0-28.0-23.0-22.0-25.0-25.0-14.0","L2SPAN_2023_63","PRE","","null","","fixation cross","<div class='stimulus'>+</div>","null","","","","",""
"html-keyboard-response","194","492376","0.0-56.0-28.0-23.0-22.0-25.0-25.0-15.0","L2SPAN_2023_63","PRE","","null","","display digit","<div class=""stimulus"">9</div>","null","9,1,7,0,6,3,4,0,6,1,7","","","9",""
"html-keyboard-response","195","494171","0.0-56.0-28.0-23.0-22.0-25.0-25.0-16.0","L2SPAN_2023_63","PRE","","null","","display digit","<div class=""stimulus"">1</div>","null","9,1,7,0,6,3,4,0,6,1,7","","","1",""
"html-keyboard-response","196","495983","0.0-56.0-28.0-23.0-22.0-25.0-25.0-17.0","L2SPAN_2023_63","PRE","","null","","display digit","<div class=""stimulus"">7</div>","null","9,1,7,0,6,3,4,0,6,1,7","","","7",""
"html-keyboard-response","197","497783","0.0-56.0-28.0-23.0-22.0-25.0-25.0-18.0","L2SPAN_2023_63","PRE","","null","","display digit","<div class=""stimulus"">0</div>","null","9,1,7,0,6,3,4,0,6,1,7","","","0",""
"html-keyboard-response","198","499596","0.0-56.0-28.0-23.0-22.0-25.0-25.0-19.0","L2SPAN_2023_63","PRE","","null","","display digit","<div class=""stimulus"">6</div>","null","9,1,7,0,6,3,4,0,6,1,7","","","6",""
"html-keyboard-response","199","501396","0.0-56.0-28.0-23.0-22.0-25.0-25.0-20.0","L2SPAN_2023_63","PRE","","null","","display digit","<div class=""stimulus"">3</div>","null","9,1,7,0,6,3,4,0,6,1,7","","","3",""
"html-keyboard-response","200","503191","0.0-56.0-28.0-23.0-22.0-25.0-25.0-21.0","L2SPAN_2023_63","PRE","","null","","display digit","<div class=""stimulus"">4</div>","null","9,1,7,0,6,3,4,0,6,1,7","","","4",""
"html-keyboard-response","201","505000","0.0-56.0-28.0-23.0-22.0-25.0-25.0-22.0","L2SPAN_2023_63","PRE","","null","","display digit","<div class=""stimulus"">0</div>","null","9,1,7,0,6,3,4,0,6,1,7","","","0",""
"html-keyboard-response","202","506811","0.0-56.0-28.0-23.0-22.0-25.0-25.0-23.0","L2SPAN_2023_63","PRE","","null","","display digit","<div class=""stimulus"">6</div>","null","9,1,7,0,6,3,4,0,6,1,7","","","6",""
"html-keyboard-response","203","508607","0.0-56.0-28.0-23.0-22.0-25.0-25.0-24.0","L2SPAN_2023_63","PRE","","null","","display digit","<div class=""stimulus"">1</div>","null","9,1,7,0,6,3,4,0,6,1,7","","","1",""
"html-keyboard-response","204","510404","0.0-56.0-28.0-23.0-22.0-25.0-25.0-25.0","L2SPAN_2023_63","PRE","","null","","display digit","<div class=""stimulus"">7</div>","null","9,1,7,0,6,3,4,0,6,1,7","","","7",""
"survey-html-form-autofocus","205","522063","0.0-56.0-28.0-23.0-22.0-25.0-25.0-26.0","L2SPAN_2023_63","PRE","","10980.099999904633","{""recall"":""6340617""}","recall","","","91706340617","6340617","6340617","","true"
"html-keyboard-response","206","523540","0.0-56.0-28.0-23.0-22.0-25.0-25.0-27.0-0.0","L2SPAN_2023_63","PRE","","null","","fixation cross","<div class='stimulus'>+</div>","null","","","","",""
"html-keyboard-response","207","525340","0.0-56.0-28.0-23.0-22.0-25.0-25.0-27.0-1.0","L2SPAN_2023_63","PRE","","null","","display digit","<div class=""stimulus"">5</div>","null","5,8,5,1,8,4,8,0","","","5",""
"html-keyboard-response","208","527148","0.0-56.0-28.0-23.0-22.0-25.0-25.0-27.0-2.0","L2SPAN_2023_63","PRE","","null","","display digit","<div class=""stimulus"">8</div>","null","5,8,5,1,8,4,8,0","","","8",""
"html-keyboard-response","209","528957","0.0-56.0-28.0-23.0-22.0-25.0-25.0-27.0-3.0","L2SPAN_2023_63","PRE","","null","","display digit","<div class=""stimulus"">5</div>","null","5,8,5,1,8,4,8,0","","","5",""
"html-keyboard-response","210","530754","0.0-56.0-28.0-23.0-22.0-25.0-25.0-27.0-4.0","L2SPAN_2023_63","PRE","","null","","display digit","<div class=""stimulus"">1</div>","null","5,8,5,1,8,4,8,0","","","1",""
"html-keyboard-response","211","532563","0.0-56.0-28.0-23.0-22.0-25.0-25.0-27.0-5.0","L2SPAN_2023_63","PRE","","null","","display digit","<div class=""stimulus"">8</div>","null","5,8,5,1,8,4,8,0","","","8",""
"html-keyboard-response","212","534363","0.0-56.0-28.0-23.0-22.0-25.0-25.0-27.0-6.0","L2SPAN_2023_63","PRE","","null","","display digit","<div class=""stimulus"">4</div>","null","5,8,5,1,8,4,8,0","","","4",""
"html-keyboard-response","213","536158","0.0-56.0-28.0-23.0-22.0-25.0-25.0-27.0-7.0","L2SPAN_2023_63","PRE","","null","","display digit","<div class=""stimulus"">8</div>","null","5,8,5,1,8,4,8,0","","","8",""
"html-keyboard-response","214","537963","0.0-56.0-28.0-23.0-22.0-25.0-25.0-27.0-8.0","L2SPAN_2023_63","PRE","","null","","display digit","<div class=""stimulus"">0</div>","null","5,8,5,1,8,4,8,0","","","0",""
"survey-html-form-autofocus","215","555831","0.0-56.0-28.0-23.0-22.0-25.0-25.0-27.0-9.0","L2SPAN_2023_63","PRE","","17200.399999976158","{""recall"":""58518480""}","recall","","","58518480","58518480","58518480","","true"
"html-keyboard-response","216","557299","0.0-56.0-28.0-23.0-22.0-25.0-25.0-27.0-10.0","L2SPAN_2023_63","PRE","","null","","fixation cross","<div class='stimulus'>+</div>","null","","","","",""
"html-keyboard-response","217","559096","0.0-56.0-28.0-23.0-22.0-25.0-25.0-27.0-11.0","L2SPAN_2023_63","PRE","","null","","display digit","<div class=""stimulus"">0</div>","null","0,4,5,9,1,8,1,0,4","","","0",""
"html-keyboard-response","218","560898","0.0-56.0-28.0-23.0-22.0-25.0-25.0-27.0-12.0","L2SPAN_2023_63","PRE","","null","","display digit","<div class=""stimulus"">4</div>","null","0,4,5,9,1,8,1,0,4","","","4",""
"html-keyboard-response","219","562702","0.0-56.0-28.0-23.0-22.0-25.0-25.0-27.0-13.0","L2SPAN_2023_63","PRE","","null","","display digit","<div class=""stimulus"">5</div>","null","0,4,5,9,1,8,1,0,4","","","5",""
"html-keyboard-response","220","564501","0.0-56.0-28.0-23.0-22.0-25.0-25.0-27.0-14.0","L2SPAN_2023_63","PRE","","null","","display digit","<div class=""stimulus"">9</div>","null","0,4,5,9,1,8,1,0,4","","","9",""
"html-keyboard-response","221","566296","0.0-56.0-28.0-23.0-22.0-25.0-25.0-27.0-15.0","L2SPAN_2023_63","PRE","","null","","display digit","<div class=""stimulus"">1</div>","null","0,4,5,9,1,8,1,0,4","","","1",""
"html-keyboard-response","222","568091","0.0-56.0-28.0-23.0-22.0-25.0-25.0-27.0-16.0","L2SPAN_2023_63","PRE","","null","","display digit","<div class=""stimulus"">8</div>","null","0,4,5,9,1,8,1,0,4","","","8",""
"html-keyboard-response","223","569892","0.0-56.0-28.0-23.0-22.0-25.0-25.0-27.0-17.0","L2SPAN_2023_63","PRE","","null","","display digit","<div class=""stimulus"">1</div>","null","0,4,5,9,1,8,1,0,4","","","1",""
"html-keyboard-response","224","571690","0.0-56.0-28.0-23.0-22.0-25.0-25.0-27.0-18.0","L2SPAN_2023_63","PRE","","null","","display digit","<div class=""stimulus"">0</div>","null","0,4,5,9,1,8,1,0,4","","","0",""
"html-keyboard-response","225","573481","0.0-56.0-28.0-23.0-22.0-25.0-25.0-27.0-19.0","L2SPAN_2023_63","PRE","","null","","display digit","<div class=""stimulus"">4</div>","null","0,4,5,9,1,8,1,0,4","","","4",""
"survey-html-form-autofocus","226","592240","0.0-56.0-28.0-23.0-22.0-25.0-25.0-27.0-20.0","L2SPAN_2023_63","PRE","","18087.700000047684","{""recall"":""45918104""}","recall","","","045918104","45918104","45918104","","true"
"html-keyboard-response","227","593718","0.0-56.0-28.0-23.0-22.0-25.0-25.0-27.0-21.0-0.0","L2SPAN_2023_63","PRE","","null","","fixation cross","<div class='stimulus'>+</div>","null","","","","",""
"html-keyboard-response","228","595529","0.0-56.0-28.0-23.0-22.0-25.0-25.0-27.0-21.0-1.0","L2SPAN_2023_63","PRE","","null","","display digit","<div class=""stimulus"">6</div>","null","6,3,2,6,8,4,7,2,4","","","6",""
"html-keyboard-response","229","597336","0.0-56.0-28.0-23.0-22.0-25.0-25.0-27.0-21.0-2.0","L2SPAN_2023_63","PRE","","null","","display digit","<div class=""stimulus"">3</div>","null","6,3,2,6,8,4,7,2,4","","","3",""
"html-keyboard-response","230","599130","0.0-56.0-28.0-23.0-22.0-25.0-25.0-27.0-21.0-3.0","L2SPAN_2023_63","PRE","","null","","display digit","<div class=""stimulus"">2</div>","null","6,3,2,6,8,4,7,2,4","","","2",""
"html-keyboard-response","231","600930","0.0-56.0-28.0-23.0-22.0-25.0-25.0-27.0-21.0-4.0","L2SPAN_2023_63","PRE","","null","","display digit","<div class=""stimulus"">6</div>","null","6,3,2,6,8,4,7,2,4","","","6",""
"html-keyboard-response","232","602745","0.0-56.0-28.0-23.0-22.0-25.0-25.0-27.0-21.0-5.0","L2SPAN_2023_63","PRE","","null","","display digit","<div class=""stimulus"">8</div>","null","6,3,2,6,8,4,7,2,4","","","8",""
"html-keyboard-response","233","604548","0.0-56.0-28.0-23.0-22.0-25.0-25.0-27.0-21.0-6.0","L2SPAN_2023_63","PRE","","null","","display digit","<div class=""stimulus"">4</div>","null","6,3,2,6,8,4,7,2,4","","","4",""
"html-keyboard-response","234","606352","0.0-56.0-28.0-23.0-22.0-25.0-25.0-27.0-21.0-7.0","L2SPAN_2023_63","PRE","","null","","display digit","<div class=""stimulus"">7</div>","null","6,3,2,6,8,4,7,2,4","","","7",""
"html-keyboard-response","235","608141","0.0-56.0-28.0-23.0-22.0-25.0-25.0-27.0-21.0-8.0","L2SPAN_2023_63","PRE","","null","","display digit","<div class=""stimulus"">2</div>","null","6,3,2,6,8,4,7,2,4","","","2",""
"html-keyboard-response","236","609942","0.0-56.0-28.0-23.0-22.0-25.0-25.0-27.0-21.0-9.0","L2SPAN_2023_63","PRE","","null","","display digit","<div class=""stimulus"">4</div>","null","6,3,2,6,8,4,7,2,4","","","4",""
"survey-html-form-autofocus","237","636223","0.0-56.0-28.0-23.0-22.0-25.0-25.0-27.0-21.0-10.0","L2SPAN_2023_63","PRE","","25604.099999904633","{""recall"":""632684724""}","recall","","","632684724","632684724","632684724","","true"
"html-keyboard-response","238","637689","0.0-56.0-28.0-23.0-22.0-25.0-25.0-27.0-21.0-11.0","L2SPAN_2023_63","PRE","","null","","fixation cross","<div class='stimulus'>+</div>","null","","","","",""
"html-keyboard-response","239","639487","0.0-56.0-28.0-23.0-22.0-25.0-25.0-27.0-21.0-12.0","L2SPAN_2023_63","PRE","","null","","display digit","<div class=""stimulus"">0</div>","null","0,6,4,8,4,1,3,4,7,8,1,4","","","0",""
"html-keyboard-response","240","641284","0.0-56.0-28.0-23.0-22.0-25.0-25.0-27.0-21.0-13.0","L2SPAN_2023_63","PRE","","null","","display digit","<div class=""stimulus"">6</div>","null","0,6,4,8,4,1,3,4,7,8,1,4","","","6",""
"html-keyboard-response","241","643096","0.0-56.0-28.0-23.0-22.0-25.0-25.0-27.0-21.0-14.0","L2SPAN_2023_63","PRE","","null","","display digit","<div class=""stimulus"">4</div>","null","0,6,4,8,4,1,3,4,7,8,1,4","","","4",""
"html-keyboard-response","242","644903","0.0-56.0-28.0-23.0-22.0-25.0-25.0-27.0-21.0-15.0","L2SPAN_2023_63","PRE","","null","","display digit","<div class=""stimulus"">8</div>","null","0,6,4,8,4,1,3,4,7,8,1,4","","","8",""
"html-keyboard-response","243","646695","0.0-56.0-28.0-23.0-22.0-25.0-25.0-27.0-21.0-16.0","L2SPAN_2023_63","PRE","","null","","display digit","<div class=""stimulus"">4</div>","null","0,6,4,8,4,1,3,4,7,8,1,4","","","4",""
"html-keyboard-response","244","648499","0.0-56.0-28.0-23.0-22.0-25.0-25.0-27.0-21.0-17.0","L2SPAN_2023_63","PRE","","null","","display digit","<div class=""stimulus"">1</div>","null","0,6,4,8,4,1,3,4,7,8,1,4","","","1",""
"html-keyboard-response","245","650297","0.0-56.0-28.0-23.0-22.0-25.0-25.0-27.0-21.0-18.0","L2SPAN_2023_63","PRE","","null","","display digit","<div class=""stimulus"">3</div>","null","0,6,4,8,4,1,3,4,7,8,1,4","","","3",""
"html-keyboard-response","246","652106","0.0-56.0-28.0-23.0-22.0-25.0-25.0-27.0-21.0-19.0","L2SPAN_2023_63","PRE","","null","","display digit","<div class=""stimulus"">4</div>","null","0,6,4,8,4,1,3,4,7,8,1,4","","","4",""
"html-keyboard-response","247","653910","0.0-56.0-28.0-23.0-22.0-25.0-25.0-27.0-21.0-20.0","L2SPAN_2023_63","PRE","","null","","display digit","<div class=""stimulus"">7</div>","null","0,6,4,8,4,1,3,4,7,8,1,4","","","7",""
"html-keyboard-response","248","655707","0.0-56.0-28.0-23.0-22.0-25.0-25.0-27.0-21.0-21.0","L2SPAN_2023_63","PRE","","null","","display digit","<div class=""stimulus"">8</div>","null","0,6,4,8,4,1,3,4,7,8,1,4","","","8",""
"html-keyboard-response","249","657498","0.0-56.0-28.0-23.0-22.0-25.0-25.0-27.0-21.0-22.0","L2SPAN_2023_63","PRE","","null","","display digit","<div class=""stimulus"">1</div>","null","0,6,4,8,4,1,3,4,7,8,1,4","","","1",""
"html-keyboard-response","250","659312","0.0-56.0-28.0-23.0-22.0-25.0-25.0-27.0-21.0-23.0","L2SPAN_2023_63","PRE","","null","","display digit","<div class=""stimulus"">4</div>","null","0,6,4,8,4,1,3,4,7,8,1,4","","","4",""
"survey-html-form-autofocus","251","696920","0.0-56.0-28.0-23.0-22.0-25.0-25.0-27.0-21.0-24.0","L2SPAN_2023_63","PRE","","36943.89999997616","{""recall"":""841347815""}","recall","","","064841347814","841347815","841347814","","false"
"html-keyboard-response","252","698397","0.0-56.0-28.0-23.0-22.0-25.0-25.0-27.0-21.0-25.0-0.0","L2SPAN_2023_63","PRE","","null","","fixation cross","<div class='stimulus'>+</div>","null","","","","",""
"html-keyboard-response","253","700193","0.0-56.0-28.0-23.0-22.0-25.0-25.0-27.0-21.0-25.0-1.0","L2SPAN_2023_63","PRE","","null","","display digit","<div class=""stimulus"">9</div>","null","9,6,4,9,4,8,7,8,7,1,9,3","","","9",""
"html-keyboard-response","254","701991","0.0-56.0-28.0-23.0-22.0-25.0-25.0-27.0-21.0-25.0-2.0","L2SPAN_2023_63","PRE","","null","","display digit","<div class=""stimulus"">6</div>","null","9,6,4,9,4,8,7,8,7,1,9,3","","","6",""
"html-keyboard-response","255","703794","0.0-56.0-28.0-23.0-22.0-25.0-25.0-27.0-21.0-25.0-3.0","L2SPAN_2023_63","PRE","","null","","display digit","<div class=""stimulus"">4</div>","null","9,6,4,9,4,8,7,8,7,1,9,3","","","4",""
"html-keyboard-response","256","705588","0.0-56.0-28.0-23.0-22.0-25.0-25.0-27.0-21.0-25.0-4.0","L2SPAN_2023_63","PRE","","null","","display digit","<div class=""stimulus"">9</div>","null","9,6,4,9,4,8,7,8,7,1,9,3","","","9",""
"html-keyboard-response","257","707396","0.0-56.0-28.0-23.0-22.0-25.0-25.0-27.0-21.0-25.0-5.0","L2SPAN_2023_63","PRE","","null","","display digit","<div class=""stimulus"">4</div>","null","9,6,4,9,4,8,7,8,7,1,9,3","","","4",""
"html-keyboard-response","258","709198","0.0-56.0-28.0-23.0-22.0-25.0-25.0-27.0-21.0-25.0-6.0","L2SPAN_2023_63","PRE","","null","","display digit","<div class=""stimulus"">8</div>","null","9,6,4,9,4,8,7,8,7,1,9,3","","","8",""
"html-keyboard-response","259","710999","0.0-56.0-28.0-23.0-22.0-25.0-25.0-27.0-21.0-25.0-7.0","L2SPAN_2023_63","PRE","","null","","display digit","<div class=""stimulus"">7</div>","null","9,6,4,9,4,8,7,8,7,1,9,3","","","7",""
"html-keyboard-response","260","712799","0.0-56.0-28.0-23.0-22.0-25.0-25.0-27.0-21.0-25.0-8.0","L2SPAN_2023_63","PRE","","null","","display digit","<div class=""stimulus"">8</div>","null","9,6,4,9,4,8,7,8,7,1,9,3","","","8",""
"html-keyboard-response","261","714608","0.0-56.0-28.0-23.0-22.0-25.0-25.0-27.0-21.0-25.0-9.0","L2SPAN_2023_63","PRE","","null","","display digit","<div class=""stimulus"">7</div>","null","9,6,4,9,4,8,7,8,7,1,9,3","","","7",""
"html-keyboard-response","262","716415","0.0-56.0-28.0-23.0-22.0-25.0-25.0-27.0-21.0-25.0-10.0","L2SPAN_2023_63","PRE","","null","","display digit","<div class=""stimulus"">1</div>","null","9,6,4,9,4,8,7,8,7,1,9,3","","","1",""
"html-keyboard-response","263","718220","0.0-56.0-28.0-23.0-22.0-25.0-25.0-27.0-21.0-25.0-11.0","L2SPAN_2023_63","PRE","","null","","display digit","<div class=""stimulus"">9</div>","null","9,6,4,9,4,8,7,8,7,1,9,3","","","9",""
"html-keyboard-response","264","720024","0.0-56.0-28.0-23.0-22.0-25.0-25.0-27.0-21.0-25.0-12.0","L2SPAN_2023_63","PRE","","null","","display digit","<div class=""stimulus"">3</div>","null","9,6,4,9,4,8,7,8,7,1,9,3","","","3",""
"survey-html-form-autofocus","265","739750","0.0-56.0-28.0-23.0-22.0-25.0-25.0-27.0-21.0-25.0-13.0","L2SPAN_2023_63","PRE","","19049.700000047684","{""recall"":""4948787193""}","recall","","","964948787193","4948787193","4948787193","","true"
"html-keyboard-response","266","741231","0.0-56.0-28.0-23.0-22.0-25.0-25.0-27.0-21.0-25.0-14.0","L2SPAN_2023_63","PRE","","null","","fixation cross","<div class='stimulus'>+</div>","null","","","","",""
"html-keyboard-response","267","743040","0.0-56.0-28.0-23.0-22.0-25.0-25.0-27.0-21.0-25.0-15.0","L2SPAN_2023_63","PRE","","null","","display digit","<div class=""stimulus"">8</div>","null","8,4,8,4,8,7,9,7,5,2,7,4","","","8",""
"html-keyboard-response","268","744837","0.0-56.0-28.0-23.0-22.0-25.0-25.0-27.0-21.0-25.0-16.0","L2SPAN_2023_63","PRE","","null","","display digit","<div class=""stimulus"">4</div>","null","8,4,8,4,8,7,9,7,5,2,7,4","","","4",""
"html-keyboard-response","269","746630","0.0-56.0-28.0-23.0-22.0-25.0-25.0-27.0-21.0-25.0-17.0","L2SPAN_2023_63","PRE","","null","","display digit","<div class=""stimulus"">8</div>","null","8,4,8,4,8,7,9,7,5,2,7,4","","","8",""
"html-keyboard-response","270","748422","0.0-56.0-28.0-23.0-22.0-25.0-25.0-27.0-21.0-25.0-18.0","L2SPAN_2023_63","PRE","","null","","display digit","<div class=""stimulus"">4</div>","null","8,4,8,4,8,7,9,7,5,2,7,4","","","4",""
"html-keyboard-response","271","750231","0.0-56.0-28.0-23.0-22.0-25.0-25.0-27.0-21.0-25.0-19.0","L2SPAN_2023_63","PRE","","null","","display digit","<div class=""stimulus"">8</div>","null","8,4,8,4,8,7,9,7,5,2,7,4","","","8",""
"html-keyboard-response","272","752027","0.0-56.0-28.0-23.0-22.0-25.0-25.0-27.0-21.0-25.0-20.0","L2SPAN_2023_63","PRE","","null","","display digit","<div class=""stimulus"">7</div>","null","8,4,8,4,8,7,9,7,5,2,7,4","","","7",""
"html-keyboard-response","273","753835","0.0-56.0-28.0-23.0-22.0-25.0-25.0-27.0-21.0-25.0-21.0","L2SPAN_2023_63","PRE","","null","","display digit","<div class=""stimulus"">9</div>","null","8,4,8,4,8,7,9,7,5,2,7,4","","","9",""
"html-keyboard-response","274","755635","0.0-56.0-28.0-23.0-22.0-25.0-25.0-27.0-21.0-25.0-22.0","L2SPAN_2023_63","PRE","","null","","display digit","<div class=""stimulus"">7</div>","null","8,4,8,4,8,7,9,7,5,2,7,4","","","7",""
"html-keyboard-response","275","757430","0.0-56.0-28.0-23.0-22.0-25.0-25.0-27.0-21.0-25.0-23.0","L2SPAN_2023_63","PRE","","null","","display digit","<div class=""stimulus"">5</div>","null","8,4,8,4,8,7,9,7,5,2,7,4","","","5",""
"html-keyboard-response","276","759237","0.0-56.0-28.0-23.0-22.0-25.0-25.0-27.0-21.0-25.0-24.0","L2SPAN_2023_63","PRE","","null","","display digit","<div class=""stimulus"">2</div>","null","8,4,8,4,8,7,9,7,5,2,7,4","","","2",""
"html-keyboard-response","277","761043","0.0-56.0-28.0-23.0-22.0-25.0-25.0-27.0-21.0-25.0-25.0","L2SPAN_2023_63","PRE","","null","","display digit","<div class=""stimulus"">7</div>","null","8,4,8,4,8,7,9,7,5,2,7,4","","","7",""
"html-keyboard-response","278","762856","0.0-56.0-28.0-23.0-22.0-25.0-25.0-27.0-21.0-25.0-26.0","L2SPAN_2023_63","PRE","","null","","display digit","<div class=""stimulus"">4</div>","null","8,4,8,4,8,7,9,7,5,2,7,4","","","4",""
"survey-html-form-autofocus","279","778606","0.0-56.0-28.0-23.0-22.0-25.0-25.0-27.0-21.0-25.0-27.0","L2SPAN_2023_63","PRE","","15080.399999976158","{""recall"":""8487975274""}","recall","","","848487975274","8487975274","8487975274","","true"
"html-keyboard-response","280","780098","0.0-56.0-28.0-23.0-22.0-25.0-25.0-27.0-21.0-25.0-28.0-0.0","L2SPAN_2023_63","PRE","","null","","fixation cross","<div class='stimulus'>+</div>","null","","","","",""
"html-keyboard-response","281","781906","0.0-56.0-28.0-23.0-22.0-25.0-25.0-27.0-21.0-25.0-28.0-1.0","L2SPAN_2023_63","PRE","","null","","display digit","<div class=""stimulus"">4</div>","null","4,1,4,2,7,6,9,8,6,7,3","","","4",""
"html-keyboard-response","282","783701","0.0-56.0-28.0-23.0-22.0-25.0-25.0-27.0-21.0-25.0-28.0-2.0","L2SPAN_2023_63","PRE","","null","","display digit","<div class=""stimulus"">1</div>","null","4,1,4,2,7,6,9,8,6,7,3","","","1",""
"html-keyboard-response","283","785493","0.0-56.0-28.0-23.0-22.0-25.0-25.0-27.0-21.0-25.0-28.0-3.0","L2SPAN_2023_63","PRE","","null","","display digit","<div class=""stimulus"">4</div>","null","4,1,4,2,7,6,9,8,6,7,3","","","4",""
"html-keyboard-response","284","787308","0.0-56.0-28.0-23.0-22.0-25.0-25.0-27.0-21.0-25.0-28.0-4.0","L2SPAN_2023_63","PRE","","null","","display digit","<div class=""stimulus"">2</div>","null","4,1,4,2,7,6,9,8,6,7,3","","","2",""
"html-keyboard-response","285","789106","0.0-56.0-28.0-23.0-22.0-25.0-25.0-27.0-21.0-25.0-28.0-5.0","L2SPAN_2023_63","PRE","","null","","display digit","<div class=""stimulus"">7</div>","null","4,1,4,2,7,6,9,8,6,7,3","","","7",""
"html-keyboard-response","286","790903","0.0-56.0-28.0-23.0-22.0-25.0-25.0-27.0-21.0-25.0-28.0-6.0","L2SPAN_2023_63","PRE","","null","","display digit","<div class=""stimulus"">6</div>","null","4,1,4,2,7,6,9,8,6,7,3","","","6",""
"html-keyboard-response","287","792710","0.0-56.0-28.0-23.0-22.0-25.0-25.0-27.0-21.0-25.0-28.0-7.0","L2SPAN_2023_63","PRE","","null","","display digit","<div class=""stimulus"">9</div>","null","4,1,4,2,7,6,9,8,6,7,3","","","9",""
"html-keyboard-response","288","794505","0.0-56.0-28.0-23.0-22.0-25.0-25.0-27.0-21.0-25.0-28.0-8.0","L2SPAN_2023_63","PRE","","null","","display digit","<div class=""stimulus"">8</div>","null","4,1,4,2,7,6,9,8,6,7,3","","","8",""
"html-keyboard-response","289","796315","0.0-56.0-28.0-23.0-22.0-25.0-25.0-27.0-21.0-25.0-28.0-9.0","L2SPAN_2023_63","PRE","","null","","display digit","<div class=""stimulus"">6</div>","null","4,1,4,2,7,6,9,8,6,7,3","","","6",""
"html-keyboard-response","290","798115","0.0-56.0-28.0-23.0-22.0-25.0-25.0-27.0-21.0-25.0-28.0-10.0","L2SPAN_2023_63","PRE","","null","","display digit","<div class=""stimulus"">7</div>","null","4,1,4,2,7,6,9,8,6,7,3","","","7",""
"html-keyboard-response","291","799915","0.0-56.0-28.0-23.0-22.0-25.0-25.0-27.0-21.0-25.0-28.0-11.0","L2SPAN_2023_63","PRE","","null","","display digit","<div class=""stimulus"">3</div>","null","4,1,4,2,7,6,9,8,6,7,3","","","3",""
"survey-html-form-autofocus","292","824004","0.0-56.0-28.0-23.0-22.0-25.0-25.0-27.0-21.0-25.0-28.0-12.0","L2SPAN_2023_63","PRE","","23410.600000023842","{""recall"":""41427698673""}","recall","","","41427698673","41427698673","41427698673","","true"
"html-keyboard-response","293","825476","0.0-56.0-28.0-23.0-22.0-25.0-25.0-27.0-21.0-25.0-28.0-13.0","L2SPAN_2023_63","PRE","","null","","fixation cross","<div class='stimulus'>+</div>","null","","","","",""
"html-keyboard-response","294","827288","0.0-56.0-28.0-23.0-22.0-25.0-25.0-27.0-21.0-25.0-28.0-14.0","L2SPAN_2023_63","PRE","","null","","display digit","<div class=""stimulus"">0</div>","null","0,7,0,4,8,7,2,3,7,2,7","","","0",""
"html-keyboard-response","295","829086","0.0-56.0-28.0-23.0-22.0-25.0-25.0-27.0-21.0-25.0-28.0-15.0","L2SPAN_2023_63","PRE","","null","","display digit","<div class=""stimulus"">7</div>","null","0,7,0,4,8,7,2,3,7,2,7","","","7",""
"html-keyboard-response","296","830886","0.0-56.0-28.0-23.0-22.0-25.0-25.0-27.0-21.0-25.0-28.0-16.0","L2SPAN_2023_63","PRE","","null","","display digit","<div class=""stimulus"">0</div>","null","0,7,0,4,8,7,2,3,7,2,7","","","0",""
"html-keyboard-response","297","832688","0.0-56.0-28.0-23.0-22.0-25.0-25.0-27.0-21.0-25.0-28.0-17.0","L2SPAN_2023_63","PRE","","null","","display digit","<div class=""stimulus"">4</div>","null","0,7,0,4,8,7,2,3,7,2,7","","","4",""
"html-keyboard-response","298","834504","0.0-56.0-28.0-23.0-22.0-25.0-25.0-27.0-21.0-25.0-28.0-18.0","L2SPAN_2023_63","PRE","","null","","display digit","<div class=""stimulus"">8</div>","null","0,7,0,4,8,7,2,3,7,2,7","","","8",""
"html-keyboard-response","299","836318","0.0-56.0-28.0-23.0-22.0-25.0-25.0-27.0-21.0-25.0-28.0-19.0","L2SPAN_2023_63","PRE","","null","","display digit","<div class=""stimulus"">7</div>","null","0,7,0,4,8,7,2,3,7,2,7","","","7",""
"html-keyboard-response","300","838114","0.0-56.0-28.0-23.0-22.0-25.0-25.0-27.0-21.0-25.0-28.0-20.0","L2SPAN_2023_63","PRE","","null","","display digit","<div class=""stimulus"">2</div>","null","0,7,0,4,8,7,2,3,7,2,7","","","2",""
"html-keyboard-response","301","839917","0.0-56.0-28.0-23.0-22.0-25.0-25.0-27.0-21.0-25.0-28.0-21.0","L2SPAN_2023_63","PRE","","null","","display digit","<div class=""stimulus"">3</div>","null","0,7,0,4,8,7,2,3,7,2,7","","","3",""
"html-keyboard-response","302","841720","0.0-56.0-28.0-23.0-22.0-25.0-25.0-27.0-21.0-25.0-28.0-22.0","L2SPAN_2023_63","PRE","","null","","display digit","<div class=""stimulus"">7</div>","null","0,7,0,4,8,7,2,3,7,2,7","","","7",""
"html-keyboard-response","303","843524","0.0-56.0-28.0-23.0-22.0-25.0-25.0-27.0-21.0-25.0-28.0-23.0","L2SPAN_2023_63","PRE","","null","","display digit","<div class=""stimulus"">2</div>","null","0,7,0,4,8,7,2,3,7,2,7","","","2",""
"html-keyboard-response","304","845332","0.0-56.0-28.0-23.0-22.0-25.0-25.0-27.0-21.0-25.0-28.0-24.0","L2SPAN_2023_63","PRE","","null","","display digit","<div class=""stimulus"">7</div>","null","0,7,0,4,8,7,2,3,7,2,7","","","7",""
"survey-html-form-autofocus","305","862094","0.0-56.0-28.0-23.0-22.0-25.0-25.0-27.0-21.0-25.0-28.0-25.0","L2SPAN_2023_63","PRE","","16093.799999952316","{""recall"":""07048723727""}","recall","","","07048723727","07048723727","07048723727","","true"
"html-keyboard-response","306","863577","0.0-56.0-28.0-23.0-22.0-25.0-25.0-27.0-21.0-25.0-28.0-26.0-0.0","L2SPAN_2023_63","PRE","","null","","fixation cross","<div class='stimulus'>+</div>","null","","","","",""
"html-keyboard-response","307","865379","0.0-56.0-28.0-23.0-22.0-25.0-25.0-27.0-21.0-25.0-28.0-26.0-1.0","L2SPAN_2023_63","PRE","","null","","display digit","<div class=""stimulus"">0</div>","null","0,9,2,8,5,8,6,1,9,6,4,2","","","0",""
"html-keyboard-response","308","867178","0.0-56.0-28.0-23.0-22.0-25.0-25.0-27.0-21.0-25.0-28.0-26.0-2.0","L2SPAN_2023_63","PRE","","null","","display digit","<div class=""stimulus"">9</div>","null","0,9,2,8,5,8,6,1,9,6,4,2","","","9",""
"html-keyboard-response","309","868994","0.0-56.0-28.0-23.0-22.0-25.0-25.0-27.0-21.0-25.0-28.0-26.0-3.0","L2SPAN_2023_63","PRE","","null","","display digit","<div class=""stimulus"">2</div>","null","0,9,2,8,5,8,6,1,9,6,4,2","","","2",""
"html-keyboard-response","310","870797","0.0-56.0-28.0-23.0-22.0-25.0-25.0-27.0-21.0-25.0-28.0-26.0-4.0","L2SPAN_2023_63","PRE","","null","","display digit","<div class=""stimulus"">8</div>","null","0,9,2,8,5,8,6,1,9,6,4,2","","","8",""
"html-keyboard-response","311","872592","0.0-56.0-28.0-23.0-22.0-25.0-25.0-27.0-21.0-25.0-28.0-26.0-5.0","L2SPAN_2023_63","PRE","","null","","display digit","<div class=""stimulus"">5</div>","null","0,9,2,8,5,8,6,1,9,6,4,2","","","5",""
"html-keyboard-response","312","874388","0.0-56.0-28.0-23.0-22.0-25.0-25.0-27.0-21.0-25.0-28.0-26.0-6.0","L2SPAN_2023_63","PRE","","null","","display digit","<div class=""stimulus"">8</div>","null","0,9,2,8,5,8,6,1,9,6,4,2","","","8",""
"html-keyboard-response","313","876194","0.0-56.0-28.0-23.0-22.0-25.0-25.0-27.0-21.0-25.0-28.0-26.0-7.0","L2SPAN_2023_63","PRE","","null","","display digit","<div class=""stimulus"">6</div>","null","0,9,2,8,5,8,6,1,9,6,4,2","","","6",""
"html-keyboard-response","314","877991","0.0-56.0-28.0-23.0-22.0-25.0-25.0-27.0-21.0-25.0-28.0-26.0-8.0","L2SPAN_2023_63","PRE","","null","","display digit","<div class=""stimulus"">1</div>","null","0,9,2,8,5,8,6,1,9,6,4,2","","","1",""
"html-keyboard-response","315","879791","0.0-56.0-28.0-23.0-22.0-25.0-25.0-27.0-21.0-25.0-28.0-26.0-9.0","L2SPAN_2023_63","PRE","","null","","display digit","<div class=""stimulus"">9</div>","null","0,9,2,8,5,8,6,1,9,6,4,2","","","9",""
"html-keyboard-response","316","881597","0.0-56.0-28.0-23.0-22.0-25.0-25.0-27.0-21.0-25.0-28.0-26.0-10.0","L2SPAN_2023_63","PRE","","null","","display digit","<div class=""stimulus"">6</div>","null","0,9,2,8,5,8,6,1,9,6,4,2","","","6",""
"html-keyboard-response","317","883389","0.0-56.0-28.0-23.0-22.0-25.0-25.0-27.0-21.0-25.0-28.0-26.0-11.0","L2SPAN_2023_63","PRE","","null","","display digit","<div class=""stimulus"">4</div>","null","0,9,2,8,5,8,6,1,9,6,4,2","","","4",""
"html-keyboard-response","318","885186","0.0-56.0-28.0-23.0-22.0-25.0-25.0-27.0-21.0-25.0-28.0-26.0-12.0","L2SPAN_2023_63","PRE","","null","","display digit","<div class=""stimulus"">2</div>","null","0,9,2,8,5,8,6,1,9,6,4,2","","","2",""
"survey-html-form-autofocus","319","901707","0.0-56.0-28.0-23.0-22.0-25.0-25.0-27.0-21.0-25.0-28.0-26.0-13.0","L2SPAN_2023_63","PRE","","15842.5","{""recall"":""092858619642""}","recall","","","092858619642","092858619642","092858619642","","true"
"html-keyboard-response","320","903196","0.0-56.0-28.0-23.0-22.0-25.0-25.0-27.0-21.0-25.0-28.0-26.0-14.0","L2SPAN_2023_63","PRE","","null","","fixation cross","<div class='stimulus'>+</div>","null","","","","",""
"html-keyboard-response","321","904994","0.0-56.0-28.0-23.0-22.0-25.0-25.0-27.0-21.0-25.0-28.0-26.0-15.0","L2SPAN_2023_63","PRE","","null","","display digit","<div class=""stimulus"">6</div>","null","6,5,8,7,6,0,4,2,3,7,2,7,3","","","6",""
"html-keyboard-response","322","906807","0.0-56.0-28.0-23.0-22.0-25.0-25.0-27.0-21.0-25.0-28.0-26.0-16.0","L2SPAN_2023_63","PRE","","null","","display digit","<div class=""stimulus"">5</div>","null","6,5,8,7,6,0,4,2,3,7,2,7,3","","","5",""
"html-keyboard-response","323","908614","0.0-56.0-28.0-23.0-22.0-25.0-25.0-27.0-21.0-25.0-28.0-26.0-17.0","L2SPAN_2023_63","PRE","","null","","display digit","<div class=""stimulus"">8</div>","null","6,5,8,7,6,0,4,2,3,7,2,7,3","","","8",""
"html-keyboard-response","324","910417","0.0-56.0-28.0-23.0-22.0-25.0-25.0-27.0-21.0-25.0-28.0-26.0-18.0","L2SPAN_2023_63","PRE","","null","","display digit","<div class=""stimulus"">7</div>","null","6,5,8,7,6,0,4,2,3,7,2,7,3","","","7",""
"html-keyboard-response","325","912221","0.0-56.0-28.0-23.0-22.0-25.0-25.0-27.0-21.0-25.0-28.0-26.0-19.0","L2SPAN_2023_63","PRE","","null","","display digit","<div class=""stimulus"">6</div>","null","6,5,8,7,6,0,4,2,3,7,2,7,3","","","6",""
"html-keyboard-response","326","914009","0.0-56.0-28.0-23.0-22.0-25.0-25.0-27.0-21.0-25.0-28.0-26.0-20.0","L2SPAN_2023_63","PRE","","null","","display digit","<div class=""stimulus"">0</div>","null","6,5,8,7,6,0,4,2,3,7,2,7,3","","","0",""
"html-keyboard-response","327","915808","0.0-56.0-28.0-23.0-22.0-25.0-25.0-27.0-21.0-25.0-28.0-26.0-21.0","L2SPAN_2023_63","PRE","","null","","display digit","<div class=""stimulus"">4</div>","null","6,5,8,7,6,0,4,2,3,7,2,7,3","","","4",""
"html-keyboard-response","328","917626","0.0-56.0-28.0-23.0-22.0-25.0-25.0-27.0-21.0-25.0-28.0-26.0-22.0","L2SPAN_2023_63","PRE","","null","","display digit","<div class=""stimulus"">2</div>","null","6,5,8,7,6,0,4,2,3,7,2,7,3","","","2",""
"html-keyboard-response","329","919438","0.0-56.0-28.0-23.0-22.0-25.0-25.0-27.0-21.0-25.0-28.0-26.0-23.0","L2SPAN_2023_63","PRE","","null","","display digit","<div class=""stimulus"">3</div>","null","6,5,8,7,6,0,4,2,3,7,2,7,3","","","3",""
"html-keyboard-response","330","921241","0.0-56.0-28.0-23.0-22.0-25.0-25.0-27.0-21.0-25.0-28.0-26.0-24.0","L2SPAN_2023_63","PRE","","null","","display digit","<div class=""stimulus"">7</div>","null","6,5,8,7,6,0,4,2,3,7,2,7,3","","","7",""
"html-keyboard-response","331","923055","0.0-56.0-28.0-23.0-22.0-25.0-25.0-27.0-21.0-25.0-28.0-26.0-25.0","L2SPAN_2023_63","PRE","","null","","display digit","<div class=""stimulus"">2</div>","null","6,5,8,7,6,0,4,2,3,7,2,7,3","","","2",""
"html-keyboard-response","332","924846","0.0-56.0-28.0-23.0-22.0-25.0-25.0-27.0-21.0-25.0-28.0-26.0-26.0","L2SPAN_2023_63","PRE","","null","","display digit","<div class=""stimulus"">7</div>","null","6,5,8,7,6,0,4,2,3,7,2,7,3","","","7",""
"html-keyboard-response","333","926640","0.0-56.0-28.0-23.0-22.0-25.0-25.0-27.0-21.0-25.0-28.0-26.0-27.0","L2SPAN_2023_63","PRE","","null","","display digit","<div class=""stimulus"">3</div>","null","6,5,8,7,6,0,4,2,3,7,2,7,3","","","3",""
"survey-html-form-autofocus","334","949653","0.0-56.0-28.0-23.0-22.0-25.0-25.0-27.0-21.0-25.0-28.0-26.0-28.0","L2SPAN_2023_63","PRE","","22341.399999976158","{""recall"":""041896427273""}","recall","","","6587604237273","041896427273","587604237273","","false"
"html-keyboard-response","335","951136","0.0-56.0-28.0-23.0-22.0-25.0-25.0-27.0-21.0-25.0-28.0-26.0-29.0-0.0","L2SPAN_2023_63","PRE","","null","","fixation cross","<div class='stimulus'>+</div>","null","","","","",""
"html-keyboard-response","336","952940","0.0-56.0-28.0-23.0-22.0-25.0-25.0-27.0-21.0-25.0-28.0-26.0-29.0-1.0","L2SPAN_2023_63","PRE","","null","","display digit","<div class=""stimulus"">7</div>","null","7,1,4,5,9,2,6,2,4,6,9,2,0","","","7",""
"html-keyboard-response","337","954745","0.0-56.0-28.0-23.0-22.0-25.0-25.0-27.0-21.0-25.0-28.0-26.0-29.0-2.0","L2SPAN_2023_63","PRE","","null","","display digit","<div class=""stimulus"">1</div>","null","7,1,4,5,9,2,6,2,4,6,9,2,0","","","1",""
"html-keyboard-response","338","956561","0.0-56.0-28.0-23.0-22.0-25.0-25.0-27.0-21.0-25.0-28.0-26.0-29.0-3.0","L2SPAN_2023_63","PRE","","null","","display digit","<div class=""stimulus"">4</div>","null","7,1,4,5,9,2,6,2,4,6,9,2,0","","","4",""
"html-keyboard-response","339","958363","0.0-56.0-28.0-23.0-22.0-25.0-25.0-27.0-21.0-25.0-28.0-26.0-29.0-4.0","L2SPAN_2023_63","PRE","","null","","display digit","<div class=""stimulus"">5</div>","null","7,1,4,5,9,2,6,2,4,6,9,2,0","","","5",""
"html-keyboard-response","340","960153","0.0-56.0-28.0-23.0-22.0-25.0-25.0-27.0-21.0-25.0-28.0-26.0-29.0-5.0","L2SPAN_2023_63","PRE","","null","","display digit","<div class=""stimulus"">9</div>","null","7,1,4,5,9,2,6,2,4,6,9,2,0","","","9",""
"html-keyboard-response","341","961951","0.0-56.0-28.0-23.0-22.0-25.0-25.0-27.0-21.0-25.0-28.0-26.0-29.0-6.0","L2SPAN_2023_63","PRE","","null","","display digit","<div class=""stimulus"">2</div>","null","7,1,4,5,9,2,6,2,4,6,9,2,0","","","2",""
"html-keyboard-response","342","963754","0.0-56.0-28.0-23.0-22.0-25.0-25.0-27.0-21.0-25.0-28.0-26.0-29.0-7.0","L2SPAN_2023_63","PRE","","null","","display digit","<div class=""stimulus"">6</div>","null","7,1,4,5,9,2,6,2,4,6,9,2,0","","","6",""
"html-keyboard-response","343","965554","0.0-56.0-28.0-23.0-22.0-25.0-25.0-27.0-21.0-25.0-28.0-26.0-29.0-8.0","L2SPAN_2023_63","PRE","","null","","display digit","<div class=""stimulus"">2</div>","null","7,1,4,5,9,2,6,2,4,6,9,2,0","","","2",""
"html-keyboard-response","344","967362","0.0-56.0-28.0-23.0-22.0-25.0-25.0-27.0-21.0-25.0-28.0-26.0-29.0-9.0","L2SPAN_2023_63","PRE","","null","","display digit","<div class=""stimulus"">4</div>","null","7,1,4,5,9,2,6,2,4,6,9,2,0","","","4",""
"html-keyboard-response","345","969175","0.0-56.0-28.0-23.0-22.0-25.0-25.0-27.0-21.0-25.0-28.0-26.0-29.0-10.0","L2SPAN_2023_63","PRE","","null","","display digit","<div class=""stimulus"">6</div>","null","7,1,4,5,9,2,6,2,4,6,9,2,0","","","6",""
"html-keyboard-response","346","970965","0.0-56.0-28.0-23.0-22.0-25.0-25.0-27.0-21.0-25.0-28.0-26.0-29.0-11.0","L2SPAN_2023_63","PRE","","null","","display digit","<div class=""stimulus"">9</div>","null","7,1,4,5,9,2,6,2,4,6,9,2,0","","","9",""
"html-keyboard-response","347","972770","0.0-56.0-28.0-23.0-22.0-25.0-25.0-27.0-21.0-25.0-28.0-26.0-29.0-12.0","L2SPAN_2023_63","PRE","","null","","display digit","<div class=""stimulus"">2</div>","null","7,1,4,5,9,2,6,2,4,6,9,2,0","","","2",""
"html-keyboard-response","348","974565","0.0-56.0-28.0-23.0-22.0-25.0-25.0-27.0-21.0-25.0-28.0-26.0-29.0-13.0","L2SPAN_2023_63","PRE","","null","","display digit","<div class=""stimulus"">0</div>","null","7,1,4,5,9,2,6,2,4,6,9,2,0","","","0",""
"survey-html-form-autofocus","349","998548","0.0-56.0-28.0-23.0-22.0-25.0-25.0-27.0-21.0-25.0-28.0-26.0-29.0-14.0","L2SPAN_2023_63","PRE","","23312.399999976158","{""recall"":""7145926246920""}","recall","","","7145926246920","7145926246920","7145926246920","","true"
"html-keyboard-response","350","1000028","0.0-56.0-28.0-23.0-22.0-25.0-25.0-27.0-21.0-25.0-28.0-26.0-29.0-15.0","L2SPAN_2023_63","PRE","","null","","fixation cross","<div class='stimulus'>+</div>","null","","","","",""
"html-keyboard-response","351","1001830","0.0-56.0-28.0-23.0-22.0-25.0-25.0-27.0-21.0-25.0-28.0-26.0-29.0-16.0","L2SPAN_2023_63","PRE","","null","","display digit","<div class=""stimulus"">6</div>","null","6,1,3,6,4,2,8,6,2,4,0,2,6","","","6",""
"html-keyboard-response","352","1003631","0.0-56.0-28.0-23.0-22.0-25.0-25.0-27.0-21.0-25.0-28.0-26.0-29.0-17.0","L2SPAN_2023_63","PRE","","null","","display digit","<div class=""stimulus"">1</div>","null","6,1,3,6,4,2,8,6,2,4,0,2,6","","","1",""
"html-keyboard-response","353","1005446","0.0-56.0-28.0-23.0-22.0-25.0-25.0-27.0-21.0-25.0-28.0-26.0-29.0-18.0","L2SPAN_2023_63","PRE","","null","","display digit","<div class=""stimulus"">3</div>","null","6,1,3,6,4,2,8,6,2,4,0,2,6","","","3",""
"html-keyboard-response","354","1007249","0.0-56.0-28.0-23.0-22.0-25.0-25.0-27.0-21.0-25.0-28.0-26.0-29.0-19.0","L2SPAN_2023_63","PRE","","null","","display digit","<div class=""stimulus"">6</div>","null","6,1,3,6,4,2,8,6,2,4,0,2,6","","","6",""
"html-keyboard-response","355","1009053","0.0-56.0-28.0-23.0-22.0-25.0-25.0-27.0-21.0-25.0-28.0-26.0-29.0-20.0","L2SPAN_2023_63","PRE","","null","","display digit","<div class=""stimulus"">4</div>","null","6,1,3,6,4,2,8,6,2,4,0,2,6","","","4",""
"html-keyboard-response","356","1010849","0.0-56.0-28.0-23.0-22.0-25.0-25.0-27.0-21.0-25.0-28.0-26.0-29.0-21.0","L2SPAN_2023_63","PRE","","null","","display digit","<div class=""stimulus"">2</div>","null","6,1,3,6,4,2,8,6,2,4,0,2,6","","","2",""
"html-keyboard-response","357","1012645","0.0-56.0-28.0-23.0-22.0-25.0-25.0-27.0-21.0-25.0-28.0-26.0-29.0-22.0","L2SPAN_2023_63","PRE","","null","","display digit","<div class=""stimulus"">8</div>","null","6,1,3,6,4,2,8,6,2,4,0,2,6","","","8",""
"html-keyboard-response","358","1014454","0.0-56.0-28.0-23.0-22.0-25.0-25.0-27.0-21.0-25.0-28.0-26.0-29.0-23.0","L2SPAN_2023_63","PRE","","null","","display digit","<div class=""stimulus"">6</div>","null","6,1,3,6,4,2,8,6,2,4,0,2,6","","","6",""
"html-keyboard-response","359","1016253","0.0-56.0-28.0-23.0-22.0-25.0-25.0-27.0-21.0-25.0-28.0-26.0-29.0-24.0","L2SPAN_2023_63","PRE","","null","","display digit","<div class=""stimulus"">2</div>","null","6,1,3,6,4,2,8,6,2,4,0,2,6","","","2",""
"html-keyboard-response","360","1018064","0.0-56.0-28.0-23.0-22.0-25.0-25.0-27.0-21.0-25.0-28.0-26.0-29.0-25.0","L2SPAN_2023_63","PRE","","null","","display digit","<div class=""stimulus"">4</div>","null","6,1,3,6,4,2,8,6,2,4,0,2,6","","","4",""
"html-keyboard-response","361","1019873","0.0-56.0-28.0-23.0-22.0-25.0-25.0-27.0-21.0-25.0-28.0-26.0-29.0-26.0","L2SPAN_2023_63","PRE","","null","","display digit","<div class=""stimulus"">0</div>","null","6,1,3,6,4,2,8,6,2,4,0,2,6","","","0",""
"html-keyboard-response","362","1021679","0.0-56.0-28.0-23.0-22.0-25.0-25.0-27.0-21.0-25.0-28.0-26.0-29.0-27.0","L2SPAN_2023_63","PRE","","null","","display digit","<div class=""stimulus"">2</div>","null","6,1,3,6,4,2,8,6,2,4,0,2,6","","","2",""
"html-keyboard-response","363","1023482","0.0-56.0-28.0-23.0-22.0-25.0-25.0-27.0-21.0-25.0-28.0-26.0-29.0-28.0","L2SPAN_2023_63","PRE","","null","","display digit","<div class=""stimulus"">6</div>","null","6,1,3,6,4,2,8,6,2,4,0,2,6","","","6",""
"survey-html-form-autofocus","364","1038044","0.0-56.0-28.0-23.0-22.0-25.0-25.0-27.0-21.0-25.0-28.0-26.0-29.0-29.0","L2SPAN_2023_63","PRE","","13897.699999928474","{""recall"":""6136428624026""}","recall","","","6136428624026","6136428624026","6136428624026","","true"
"html-keyboard-response","365","1042890","0.0-57.0","L2SPAN_2023_63","PRE","","4177.899999976158","","","<p>End of the experiment.<br/>			   		You reached level 13 and your					total score is 24.</p>					<p class=""important"">PRESS SPACE TO FINISH THE EXPERIMENT.</p>","32","","","","",""
"fullscreen","366","1043910","0.0-58.0","L2SPAN_2023_63","PRE","true","","","","","","","","","",""
