"trial_type","trial_index","time_elapsed","internal_node_id","userID","sessionType","success","rt","responses","stage","stimulus","key_press","sequence","recall","sequence_last_digits","digit","correct"
"pavlovia","0","2","0.0-0.0","L2SPAN_2023_70","PRE","","","","","","","","","","",""
"fullscreen","1","3513","0.0-1.0","L2SPAN_2023_70","PRE","true","","","","","","","","","",""
"survey-html-form","2","9757","0.0-2.0","L2SPAN_2023_70","PRE","","5568.399999976158","{""userID"":""L2SPAN_2023_70"",""type"":""PRE""}","userID","","","","","","",""
"html-keyboard-response","3","20889","0.0-3.0","L2SPAN_2023_70","PRE","","10460.399999976158","","","<p>Welcome to this task.</p>			<p>You will see a set of numbers, presented one at a time.<br/>			You need to pay attention to the numbers in the list and their order.<br/>			The list will end abruptly at any time. You will be told to enter the LAST X number of digits.</p>			<p>[Press SPACE to practice]</p>","32","","","","",""
"html-keyboard-response","4","21707","0.0-4.0","L2SPAN_2023_70","PRE","","null","","fixation cross","<div class='stimulus'>+</div>","null","","","","",""
"html-keyboard-response","5","23506","0.0-5.0","L2SPAN_2023_70","PRE","","null","","practice display digit","<div class=""stimulus"">9</div>","null","9,8,3","","","",""
"html-keyboard-response","6","25313","0.0-6.0","L2SPAN_2023_70","PRE","","null","","practice display digit","<div class=""stimulus"">8</div>","null","9,8,3","","","",""
"html-keyboard-response","7","27114","0.0-7.0","L2SPAN_2023_70","PRE","","null","","practice display digit","<div class=""stimulus"">3</div>","null","9,8,3","","","",""
"survey-html-form-autofocus","8","31656","0.0-8.0","L2SPAN_2023_70","PRE","","3865.5","{""recall"":""83""}","practice recall","","","983","","83","",""
"html-keyboard-response","9","33256","0.0-9.0","L2SPAN_2023_70","PRE","","927.6000000238419","","","<span class='correct'>Perfect!</span><br/>Press SPACE to continue.","32","","","","",""
"html-keyboard-response","10","34074","0.0-10.0","L2SPAN_2023_70","PRE","","null","","fixation cross","<div class='stimulus'>+</div>","null","","","","",""
"html-keyboard-response","11","35877","0.0-11.0","L2SPAN_2023_70","PRE","","null","","practice display digit","<div class=""stimulus"">4</div>","null","4,8,2,1,9","","","",""
"html-keyboard-response","12","37680","0.0-12.0","L2SPAN_2023_70","PRE","","null","","practice display digit","<div class=""stimulus"">8</div>","null","4,8,2,1,9","","","",""
"html-keyboard-response","13","39489","0.0-13.0","L2SPAN_2023_70","PRE","","null","","practice display digit","<div class=""stimulus"">2</div>","null","4,8,2,1,9","","","",""
"html-keyboard-response","14","41294","0.0-14.0","L2SPAN_2023_70","PRE","","null","","practice display digit","<div class=""stimulus"">1</div>","null","4,8,2,1,9","","","",""
"html-keyboard-response","15","43098","0.0-15.0","L2SPAN_2023_70","PRE","","null","","practice display digit","<div class=""stimulus"">9</div>","null","4,8,2,1,9","","","",""
"survey-html-form-autofocus","16","48889","0.0-16.0","L2SPAN_2023_70","PRE","","5120.700000047684","{""recall"":""219""}","practice recall","","","48219","","219","",""
"html-keyboard-response","17","50684","0.0-17.0","L2SPAN_2023_70","PRE","","1123.699999988079","","","<span class='correct'>Perfect!</span><br/>Press SPACE to continue.","32","","","","",""
"html-keyboard-response","18","51504","0.0-18.0","L2SPAN_2023_70","PRE","","null","","fixation cross","<div class='stimulus'>+</div>","null","","","","",""
"html-keyboard-response","19","53313","0.0-19.0","L2SPAN_2023_70","PRE","","null","","practice display digit","<div class=""stimulus"">5</div>","null","5,7,1,9,4,2,3,6","","","",""
"html-keyboard-response","20","55119","0.0-20.0","L2SPAN_2023_70","PRE","","null","","practice display digit","<div class=""stimulus"">7</div>","null","5,7,1,9,4,2,3,6","","","",""
"html-keyboard-response","21","56924","0.0-21.0","L2SPAN_2023_70","PRE","","null","","practice display digit","<div class=""stimulus"">1</div>","null","5,7,1,9,4,2,3,6","","","",""
"html-keyboard-response","22","58729","0.0-22.0","L2SPAN_2023_70","PRE","","null","","practice display digit","<div class=""stimulus"">9</div>","null","5,7,1,9,4,2,3,6","","","",""
"html-keyboard-response","23","60532","0.0-23.0","L2SPAN_2023_70","PRE","","null","","practice display digit","<div class=""stimulus"">4</div>","null","5,7,1,9,4,2,3,6","","","",""
"html-keyboard-response","24","62332","0.0-24.0","L2SPAN_2023_70","PRE","","null","","practice display digit","<div class=""stimulus"">2</div>","null","5,7,1,9,4,2,3,6","","","",""
"html-keyboard-response","25","64137","0.0-25.0","L2SPAN_2023_70","PRE","","null","","practice display digit","<div class=""stimulus"">3</div>","null","5,7,1,9,4,2,3,6","","","",""
"html-keyboard-response","26","65937","0.0-26.0","L2SPAN_2023_70","PRE","","null","","practice display digit","<div class=""stimulus"">6</div>","null","5,7,1,9,4,2,3,6","","","",""
"survey-html-form-autofocus","27","80205","0.0-27.0","L2SPAN_2023_70","PRE","","13597.899999976158","{""recall"":""4293""}","practice recall","","","57194236","","4236","",""
"html-keyboard-response","28","87807","0.0-28.0","L2SPAN_2023_70","PRE","","6932.700000047684","","","<p>The sequence was 57194236					and you input 4293.<br/>					<span class='incorrect'>You should have written 4236.</span></p>						<p>Press SPACE to continue</p>","32","","","","",""
"html-keyboard-response","29","95092","0.0-29.0","L2SPAN_2023_70","PRE","","7273","","","<p>That was the practice section.<br/>			<p>Now goes the official part of the task.<br/>			You won't be given any feedback on your performance.</p>			<p>R U ready?</p>			<p>[Press Y to begin]</p>","89","","","","",""
"html-keyboard-response","30","96564","0.0-30.0","L2SPAN_2023_70","PRE","","null","","fixation cross","<div class='stimulus'>+</div>","null","","","","",""
"html-keyboard-response","31","98367","0.0-31.0","L2SPAN_2023_70","PRE","","null","","display digit","<div class=""stimulus"">5</div>","null","5,1,0,4,9,5","","","5",""
"html-keyboard-response","32","100175","0.0-32.0","L2SPAN_2023_70","PRE","","null","","display digit","<div class=""stimulus"">1</div>","null","5,1,0,4,9,5","","","1",""
"html-keyboard-response","33","101975","0.0-33.0","L2SPAN_2023_70","PRE","","null","","display digit","<div class=""stimulus"">0</div>","null","5,1,0,4,9,5","","","0",""
"html-keyboard-response","34","103781","0.0-34.0","L2SPAN_2023_70","PRE","","null","","display digit","<div class=""stimulus"">4</div>","null","5,1,0,4,9,5","","","4",""
"html-keyboard-response","35","105572","0.0-35.0","L2SPAN_2023_70","PRE","","null","","display digit","<div class=""stimulus"">9</div>","null","5,1,0,4,9,5","","","9",""
"html-keyboard-response","36","107374","0.0-36.0","L2SPAN_2023_70","PRE","","null","","display digit","<div class=""stimulus"">5</div>","null","5,1,0,4,9,5","","","5",""
"survey-html-form-autofocus","37","113722","0.0-37.0","L2SPAN_2023_70","PRE","","5674.800000011921","{""recall"":""9""}","recall","","","510495","9","5","","false"
"html-keyboard-response","38","115199","0.0-38.0","L2SPAN_2023_70","PRE","","null","","fixation cross","<div class='stimulus'>+</div>","null","","","","",""
"html-keyboard-response","39","117007","0.0-39.0","L2SPAN_2023_70","PRE","","null","","display digit","<div class=""stimulus"">3</div>","null","3,0,6,4,9,6,5,1,9","","","3",""
"html-keyboard-response","40","118815","0.0-40.0","L2SPAN_2023_70","PRE","","null","","display digit","<div class=""stimulus"">0</div>","null","3,0,6,4,9,6,5,1,9","","","0",""
"html-keyboard-response","41","120622","0.0-41.0","L2SPAN_2023_70","PRE","","null","","display digit","<div class=""stimulus"">6</div>","null","3,0,6,4,9,6,5,1,9","","","6",""
"html-keyboard-response","42","122431","0.0-42.0","L2SPAN_2023_70","PRE","","null","","display digit","<div class=""stimulus"">4</div>","null","3,0,6,4,9,6,5,1,9","","","4",""
"html-keyboard-response","43","124238","0.0-43.0","L2SPAN_2023_70","PRE","","null","","display digit","<div class=""stimulus"">9</div>","null","3,0,6,4,9,6,5,1,9","","","9",""
"html-keyboard-response","44","126047","0.0-44.0","L2SPAN_2023_70","PRE","","null","","display digit","<div class=""stimulus"">6</div>","null","3,0,6,4,9,6,5,1,9","","","6",""
"html-keyboard-response","45","127855","0.0-45.0","L2SPAN_2023_70","PRE","","null","","display digit","<div class=""stimulus"">5</div>","null","3,0,6,4,9,6,5,1,9","","","5",""
"html-keyboard-response","46","129662","0.0-46.0","L2SPAN_2023_70","PRE","","null","","display digit","<div class=""stimulus"">1</div>","null","3,0,6,4,9,6,5,1,9","","","1",""
"html-keyboard-response","47","131471","0.0-47.0","L2SPAN_2023_70","PRE","","null","","display digit","<div class=""stimulus"">9</div>","null","3,0,6,4,9,6,5,1,9","","","9",""
"survey-html-form-autofocus","48","134455","0.0-48.0","L2SPAN_2023_70","PRE","","2311.800000011921","{""recall"":""9""}","recall","","","306496519","9","9","","true"
"html-keyboard-response","49","135931","0.0-49.0-0.0","L2SPAN_2023_70","PRE","","null","","fixation cross","<div class='stimulus'>+</div>","null","","","","",""
"html-keyboard-response","50","137734","0.0-49.0-1.0","L2SPAN_2023_70","PRE","","null","","display digit","<div class=""stimulus"">2</div>","null","2,3,2,8,7,0,1,3","","","2",""
"html-keyboard-response","51","139538","0.0-49.0-2.0","L2SPAN_2023_70","PRE","","null","","display digit","<div class=""stimulus"">3</div>","null","2,3,2,8,7,0,1,3","","","3",""
"html-keyboard-response","52","141342","0.0-49.0-3.0","L2SPAN_2023_70","PRE","","null","","display digit","<div class=""stimulus"">2</div>","null","2,3,2,8,7,0,1,3","","","2",""
"html-keyboard-response","53","143151","0.0-49.0-4.0","L2SPAN_2023_70","PRE","","null","","display digit","<div class=""stimulus"">8</div>","null","2,3,2,8,7,0,1,3","","","8",""
"html-keyboard-response","54","144955","0.0-49.0-5.0","L2SPAN_2023_70","PRE","","null","","display digit","<div class=""stimulus"">7</div>","null","2,3,2,8,7,0,1,3","","","7",""
"html-keyboard-response","55","146749","0.0-49.0-6.0","L2SPAN_2023_70","PRE","","null","","display digit","<div class=""stimulus"">0</div>","null","2,3,2,8,7,0,1,3","","","0",""
"html-keyboard-response","56","148558","0.0-49.0-7.0","L2SPAN_2023_70","PRE","","null","","display digit","<div class=""stimulus"">1</div>","null","2,3,2,8,7,0,1,3","","","1",""
"html-keyboard-response","57","150355","0.0-49.0-8.0","L2SPAN_2023_70","PRE","","null","","display digit","<div class=""stimulus"">3</div>","null","2,3,2,8,7,0,1,3","","","3",""
"survey-html-form-autofocus","58","154737","0.0-49.0-9.0","L2SPAN_2023_70","PRE","","3712.2999999523163","{""recall"":""13""}","recall","","","23287013","13","13","","true"
"html-keyboard-response","59","156213","0.0-49.0-10.0","L2SPAN_2023_70","PRE","","null","","fixation cross","<div class='stimulus'>+</div>","null","","","","",""
"html-keyboard-response","60","158021","0.0-49.0-11.0","L2SPAN_2023_70","PRE","","null","","display digit","<div class=""stimulus"">6</div>","null","6,9,1,0,4","","","6",""
"html-keyboard-response","61","159825","0.0-49.0-12.0","L2SPAN_2023_70","PRE","","null","","display digit","<div class=""stimulus"">9</div>","null","6,9,1,0,4","","","9",""
"html-keyboard-response","62","161626","0.0-49.0-13.0","L2SPAN_2023_70","PRE","","null","","display digit","<div class=""stimulus"">1</div>","null","6,9,1,0,4","","","1",""
"html-keyboard-response","63","163421","0.0-49.0-14.0","L2SPAN_2023_70","PRE","","null","","display digit","<div class=""stimulus"">0</div>","null","6,9,1,0,4","","","0",""
"html-keyboard-response","64","165225","0.0-49.0-15.0","L2SPAN_2023_70","PRE","","null","","display digit","<div class=""stimulus"">4</div>","null","6,9,1,0,4","","","4",""
"survey-html-form-autofocus","65","171953","0.0-49.0-16.0","L2SPAN_2023_70","PRE","","6057","{""recall"":""04""}","recall","","","69104","04","04","","true"
"html-keyboard-response","66","173427","0.0-49.0-17.0-0.0","L2SPAN_2023_70","PRE","","null","","fixation cross","<div class='stimulus'>+</div>","null","","","","",""
"html-keyboard-response","67","175229","0.0-49.0-17.0-1.0","L2SPAN_2023_70","PRE","","null","","display digit","<div class=""stimulus"">5</div>","null","5,0,1,4,1","","","5",""
"html-keyboard-response","68","177025","0.0-49.0-17.0-2.0","L2SPAN_2023_70","PRE","","null","","display digit","<div class=""stimulus"">0</div>","null","5,0,1,4,1","","","0",""
"html-keyboard-response","69","178829","0.0-49.0-17.0-3.0","L2SPAN_2023_70","PRE","","null","","display digit","<div class=""stimulus"">1</div>","null","5,0,1,4,1","","","1",""
"html-keyboard-response","70","180637","0.0-49.0-17.0-4.0","L2SPAN_2023_70","PRE","","null","","display digit","<div class=""stimulus"">4</div>","null","5,0,1,4,1","","","4",""
"html-keyboard-response","71","182437","0.0-49.0-17.0-5.0","L2SPAN_2023_70","PRE","","null","","display digit","<div class=""stimulus"">1</div>","null","5,0,1,4,1","","","1",""
"survey-html-form-autofocus","72","187856","0.0-49.0-17.0-6.0","L2SPAN_2023_70","PRE","","4743.899999976158","{""recall"":""141""}","recall","","","50141","141","141","","true"
"html-keyboard-response","73","189331","0.0-49.0-17.0-7.0","L2SPAN_2023_70","PRE","","null","","fixation cross","<div class='stimulus'>+</div>","null","","","","",""
"html-keyboard-response","74","191133","0.0-49.0-17.0-8.0","L2SPAN_2023_70","PRE","","null","","display digit","<div class=""stimulus"">0</div>","null","0,9,3,5,2,8,2,5,3,2,5,8","","","0",""
"html-keyboard-response","75","192941","0.0-49.0-17.0-9.0","L2SPAN_2023_70","PRE","","null","","display digit","<div class=""stimulus"">9</div>","null","0,9,3,5,2,8,2,5,3,2,5,8","","","9",""
"html-keyboard-response","76","194749","0.0-49.0-17.0-10.0","L2SPAN_2023_70","PRE","","null","","display digit","<div class=""stimulus"">3</div>","null","0,9,3,5,2,8,2,5,3,2,5,8","","","3",""
"html-keyboard-response","77","196546","0.0-49.0-17.0-11.0","L2SPAN_2023_70","PRE","","null","","display digit","<div class=""stimulus"">5</div>","null","0,9,3,5,2,8,2,5,3,2,5,8","","","5",""
"html-keyboard-response","78","198348","0.0-49.0-17.0-12.0","L2SPAN_2023_70","PRE","","null","","display digit","<div class=""stimulus"">2</div>","null","0,9,3,5,2,8,2,5,3,2,5,8","","","2",""
"html-keyboard-response","79","200156","0.0-49.0-17.0-13.0","L2SPAN_2023_70","PRE","","null","","display digit","<div class=""stimulus"">8</div>","null","0,9,3,5,2,8,2,5,3,2,5,8","","","8",""
"html-keyboard-response","80","201964","0.0-49.0-17.0-14.0","L2SPAN_2023_70","PRE","","null","","display digit","<div class=""stimulus"">2</div>","null","0,9,3,5,2,8,2,5,3,2,5,8","","","2",""
"html-keyboard-response","81","203772","0.0-49.0-17.0-15.0","L2SPAN_2023_70","PRE","","null","","display digit","<div class=""stimulus"">5</div>","null","0,9,3,5,2,8,2,5,3,2,5,8","","","5",""
"html-keyboard-response","82","205580","0.0-49.0-17.0-16.0","L2SPAN_2023_70","PRE","","null","","display digit","<div class=""stimulus"">3</div>","null","0,9,3,5,2,8,2,5,3,2,5,8","","","3",""
"html-keyboard-response","83","207388","0.0-49.0-17.0-17.0","L2SPAN_2023_70","PRE","","null","","display digit","<div class=""stimulus"">2</div>","null","0,9,3,5,2,8,2,5,3,2,5,8","","","2",""
"html-keyboard-response","84","209195","0.0-49.0-17.0-18.0","L2SPAN_2023_70","PRE","","null","","display digit","<div class=""stimulus"">5</div>","null","0,9,3,5,2,8,2,5,3,2,5,8","","","5",""
"html-keyboard-response","85","211007","0.0-49.0-17.0-19.0","L2SPAN_2023_70","PRE","","null","","display digit","<div class=""stimulus"">8</div>","null","0,9,3,5,2,8,2,5,3,2,5,8","","","8",""
"survey-html-form-autofocus","86","217169","0.0-49.0-17.0-20.0","L2SPAN_2023_70","PRE","","5492.300000011921","{""recall"":""258""}","recall","","","093528253258","258","258","","true"
"html-keyboard-response","87","218644","0.0-49.0-17.0-21.0-0.0","L2SPAN_2023_70","PRE","","null","","fixation cross","<div class='stimulus'>+</div>","null","","","","",""
"html-keyboard-response","88","220448","0.0-49.0-17.0-21.0-1.0","L2SPAN_2023_70","PRE","","null","","display digit","<div class=""stimulus"">4</div>","null","4,2,1,4,9,6","","","4",""
"html-keyboard-response","89","222240","0.0-49.0-17.0-21.0-2.0","L2SPAN_2023_70","PRE","","null","","display digit","<div class=""stimulus"">2</div>","null","4,2,1,4,9,6","","","2",""
"html-keyboard-response","90","224044","0.0-49.0-17.0-21.0-3.0","L2SPAN_2023_70","PRE","","null","","display digit","<div class=""stimulus"">1</div>","null","4,2,1,4,9,6","","","1",""
"html-keyboard-response","91","225851","0.0-49.0-17.0-21.0-4.0","L2SPAN_2023_70","PRE","","null","","display digit","<div class=""stimulus"">4</div>","null","4,2,1,4,9,6","","","4",""
"html-keyboard-response","92","227656","0.0-49.0-17.0-21.0-5.0","L2SPAN_2023_70","PRE","","null","","display digit","<div class=""stimulus"">9</div>","null","4,2,1,4,9,6","","","9",""
"html-keyboard-response","93","229459","0.0-49.0-17.0-21.0-6.0","L2SPAN_2023_70","PRE","","null","","display digit","<div class=""stimulus"">6</div>","null","4,2,1,4,9,6","","","6",""
"survey-html-form-autofocus","94","234403","0.0-49.0-17.0-21.0-7.0","L2SPAN_2023_70","PRE","","4271.900000035763","{""recall"":""1496""}","recall","","","421496","1496","1496","","true"
"html-keyboard-response","95","235883","0.0-49.0-17.0-21.0-8.0","L2SPAN_2023_70","PRE","","null","","fixation cross","<div class='stimulus'>+</div>","null","","","","",""
"html-keyboard-response","96","237691","0.0-49.0-17.0-21.0-9.0","L2SPAN_2023_70","PRE","","null","","display digit","<div class=""stimulus"">2</div>","null","2,6,9,4,8,5,2,9","","","2",""
"html-keyboard-response","97","239496","0.0-49.0-17.0-21.0-10.0","L2SPAN_2023_70","PRE","","null","","display digit","<div class=""stimulus"">6</div>","null","2,6,9,4,8,5,2,9","","","6",""
"html-keyboard-response","98","241299","0.0-49.0-17.0-21.0-11.0","L2SPAN_2023_70","PRE","","null","","display digit","<div class=""stimulus"">9</div>","null","2,6,9,4,8,5,2,9","","","9",""
"html-keyboard-response","99","243097","0.0-49.0-17.0-21.0-12.0","L2SPAN_2023_70","PRE","","null","","display digit","<div class=""stimulus"">4</div>","null","2,6,9,4,8,5,2,9","","","4",""
"html-keyboard-response","100","244905","0.0-49.0-17.0-21.0-13.0","L2SPAN_2023_70","PRE","","null","","display digit","<div class=""stimulus"">8</div>","null","2,6,9,4,8,5,2,9","","","8",""
"html-keyboard-response","101","246703","0.0-49.0-17.0-21.0-14.0","L2SPAN_2023_70","PRE","","null","","display digit","<div class=""stimulus"">5</div>","null","2,6,9,4,8,5,2,9","","","5",""
"html-keyboard-response","102","248504","0.0-49.0-17.0-21.0-15.0","L2SPAN_2023_70","PRE","","null","","display digit","<div class=""stimulus"">2</div>","null","2,6,9,4,8,5,2,9","","","2",""
"html-keyboard-response","103","250307","0.0-49.0-17.0-21.0-16.0","L2SPAN_2023_70","PRE","","null","","display digit","<div class=""stimulus"">9</div>","null","2,6,9,4,8,5,2,9","","","9",""
"survey-html-form-autofocus","104","260654","0.0-49.0-17.0-21.0-17.0","L2SPAN_2023_70","PRE","","9672.5","{""recall"":""5692""}","recall","","","26948529","5692","8529","","false"
"html-keyboard-response","105","262127","0.0-49.0-17.0-21.0-18.0-0.0","L2SPAN_2023_70","PRE","","null","","fixation cross","<div class='stimulus'>+</div>","null","","","","",""
"html-keyboard-response","106","263930","0.0-49.0-17.0-21.0-18.0-1.0","L2SPAN_2023_70","PRE","","null","","display digit","<div class=""stimulus"">0</div>","null","0,4,1,0,8,2,3,0","","","0",""
"html-keyboard-response","107","265736","0.0-49.0-17.0-21.0-18.0-2.0","L2SPAN_2023_70","PRE","","null","","display digit","<div class=""stimulus"">4</div>","null","0,4,1,0,8,2,3,0","","","4",""
"html-keyboard-response","108","267534","0.0-49.0-17.0-21.0-18.0-3.0","L2SPAN_2023_70","PRE","","null","","display digit","<div class=""stimulus"">1</div>","null","0,4,1,0,8,2,3,0","","","1",""
"html-keyboard-response","109","269327","0.0-49.0-17.0-21.0-18.0-4.0","L2SPAN_2023_70","PRE","","null","","display digit","<div class=""stimulus"">0</div>","null","0,4,1,0,8,2,3,0","","","0",""
"html-keyboard-response","110","271128","0.0-49.0-17.0-21.0-18.0-5.0","L2SPAN_2023_70","PRE","","null","","display digit","<div class=""stimulus"">8</div>","null","0,4,1,0,8,2,3,0","","","8",""
"html-keyboard-response","111","272933","0.0-49.0-17.0-21.0-18.0-6.0","L2SPAN_2023_70","PRE","","null","","display digit","<div class=""stimulus"">2</div>","null","0,4,1,0,8,2,3,0","","","2",""
"html-keyboard-response","112","274736","0.0-49.0-17.0-21.0-18.0-7.0","L2SPAN_2023_70","PRE","","null","","display digit","<div class=""stimulus"">3</div>","null","0,4,1,0,8,2,3,0","","","3",""
"html-keyboard-response","113","276537","0.0-49.0-17.0-21.0-18.0-8.0","L2SPAN_2023_70","PRE","","null","","display digit","<div class=""stimulus"">0</div>","null","0,4,1,0,8,2,3,0","","","0",""
"survey-html-form-autofocus","114","291218","0.0-49.0-17.0-21.0-18.0-9.0","L2SPAN_2023_70","PRE","","14008.300000011921","{""recall"":""10842""}","recall","","","04108230","10842","08230","","false"
"html-keyboard-response","115","292696","0.0-49.0-17.0-21.0-18.0-10.0","L2SPAN_2023_70","PRE","","null","","fixation cross","<div class='stimulus'>+</div>","null","","","","",""
"html-keyboard-response","116","294496","0.0-49.0-17.0-21.0-18.0-11.0","L2SPAN_2023_70","PRE","","null","","display digit","<div class=""stimulus"">1</div>","null","1,0,8,7,3,8","","","1",""
"html-keyboard-response","117","296297","0.0-49.0-17.0-21.0-18.0-12.0","L2SPAN_2023_70","PRE","","null","","display digit","<div class=""stimulus"">0</div>","null","1,0,8,7,3,8","","","0",""
"html-keyboard-response","118","298094","0.0-49.0-17.0-21.0-18.0-13.0","L2SPAN_2023_70","PRE","","null","","display digit","<div class=""stimulus"">8</div>","null","1,0,8,7,3,8","","","8",""
"html-keyboard-response","119","299897","0.0-49.0-17.0-21.0-18.0-14.0","L2SPAN_2023_70","PRE","","null","","display digit","<div class=""stimulus"">7</div>","null","1,0,8,7,3,8","","","7",""
"html-keyboard-response","120","301705","0.0-49.0-17.0-21.0-18.0-15.0","L2SPAN_2023_70","PRE","","null","","display digit","<div class=""stimulus"">3</div>","null","1,0,8,7,3,8","","","3",""
"html-keyboard-response","121","303513","0.0-49.0-17.0-21.0-18.0-16.0","L2SPAN_2023_70","PRE","","null","","display digit","<div class=""stimulus"">8</div>","null","1,0,8,7,3,8","","","8",""
"survey-html-form-autofocus","122","311050","0.0-49.0-17.0-21.0-18.0-17.0","L2SPAN_2023_70","PRE","","6864.699999988079","{""recall"":""08738""}","recall","","","108738","08738","08738","","true"
"html-keyboard-response","123","312525","0.0-49.0-17.0-21.0-18.0-18.0-0.0","L2SPAN_2023_70","PRE","","null","","fixation cross","<div class='stimulus'>+</div>","null","","","","",""
"html-keyboard-response","124","314325","0.0-49.0-17.0-21.0-18.0-18.0-1.0","L2SPAN_2023_70","PRE","","null","","display digit","<div class=""stimulus"">2</div>","null","2,7,1,6,0,9,5,3,0","","","2",""
"html-keyboard-response","125","316121","0.0-49.0-17.0-21.0-18.0-18.0-2.0","L2SPAN_2023_70","PRE","","null","","display digit","<div class=""stimulus"">7</div>","null","2,7,1,6,0,9,5,3,0","","","7",""
"html-keyboard-response","126","317929","0.0-49.0-17.0-21.0-18.0-18.0-3.0","L2SPAN_2023_70","PRE","","null","","display digit","<div class=""stimulus"">1</div>","null","2,7,1,6,0,9,5,3,0","","","1",""
"html-keyboard-response","127","319737","0.0-49.0-17.0-21.0-18.0-18.0-4.0","L2SPAN_2023_70","PRE","","null","","display digit","<div class=""stimulus"">6</div>","null","2,7,1,6,0,9,5,3,0","","","6",""
"html-keyboard-response","128","321536","0.0-49.0-17.0-21.0-18.0-18.0-5.0","L2SPAN_2023_70","PRE","","null","","display digit","<div class=""stimulus"">0</div>","null","2,7,1,6,0,9,5,3,0","","","0",""
"html-keyboard-response","129","323343","0.0-49.0-17.0-21.0-18.0-18.0-6.0","L2SPAN_2023_70","PRE","","null","","display digit","<div class=""stimulus"">9</div>","null","2,7,1,6,0,9,5,3,0","","","9",""
"html-keyboard-response","130","325152","0.0-49.0-17.0-21.0-18.0-18.0-7.0","L2SPAN_2023_70","PRE","","null","","display digit","<div class=""stimulus"">5</div>","null","2,7,1,6,0,9,5,3,0","","","5",""
"html-keyboard-response","131","326960","0.0-49.0-17.0-21.0-18.0-18.0-8.0","L2SPAN_2023_70","PRE","","null","","display digit","<div class=""stimulus"">3</div>","null","2,7,1,6,0,9,5,3,0","","","3",""
"html-keyboard-response","132","328767","0.0-49.0-17.0-21.0-18.0-18.0-9.0","L2SPAN_2023_70","PRE","","null","","display digit","<div class=""stimulus"">0</div>","null","2,7,1,6,0,9,5,3,0","","","0",""
"survey-html-form-autofocus","133","341184","0.0-49.0-17.0-21.0-18.0-18.0-10.0","L2SPAN_2023_70","PRE","","11743.699999988079","{""recall"":""609530""}","recall","","","271609530","609530","609530","","true"
"html-keyboard-response","134","342662","0.0-49.0-17.0-21.0-18.0-18.0-11.0","L2SPAN_2023_70","PRE","","null","","fixation cross","<div class='stimulus'>+</div>","null","","","","",""
"html-keyboard-response","135","344472","0.0-49.0-17.0-21.0-18.0-18.0-12.0","L2SPAN_2023_70","PRE","","null","","display digit","<div class=""stimulus"">6</div>","null","6,2,1,8,5,2,0","","","6",""
"html-keyboard-response","136","346277","0.0-49.0-17.0-21.0-18.0-18.0-13.0","L2SPAN_2023_70","PRE","","null","","display digit","<div class=""stimulus"">2</div>","null","6,2,1,8,5,2,0","","","2",""
"html-keyboard-response","137","348087","0.0-49.0-17.0-21.0-18.0-18.0-14.0","L2SPAN_2023_70","PRE","","null","","display digit","<div class=""stimulus"">1</div>","null","6,2,1,8,5,2,0","","","1",""
"html-keyboard-response","138","349884","0.0-49.0-17.0-21.0-18.0-18.0-15.0","L2SPAN_2023_70","PRE","","null","","display digit","<div class=""stimulus"">8</div>","null","6,2,1,8,5,2,0","","","8",""
"html-keyboard-response","139","351687","0.0-49.0-17.0-21.0-18.0-18.0-16.0","L2SPAN_2023_70","PRE","","null","","display digit","<div class=""stimulus"">5</div>","null","6,2,1,8,5,2,0","","","5",""
"html-keyboard-response","140","353494","0.0-49.0-17.0-21.0-18.0-18.0-17.0","L2SPAN_2023_70","PRE","","null","","display digit","<div class=""stimulus"">2</div>","null","6,2,1,8,5,2,0","","","2",""
"html-keyboard-response","141","355299","0.0-49.0-17.0-21.0-18.0-18.0-18.0","L2SPAN_2023_70","PRE","","null","","display digit","<div class=""stimulus"">0</div>","null","6,2,1,8,5,2,0","","","0",""
"survey-html-form-autofocus","142","363700","0.0-49.0-17.0-21.0-18.0-18.0-19.0","L2SPAN_2023_70","PRE","","7731","{""recall"":""218520""}","recall","","","6218520","218520","218520","","true"
"html-keyboard-response","143","365171","0.0-49.0-17.0-21.0-18.0-18.0-20.0-0.0","L2SPAN_2023_70","PRE","","null","","fixation cross","<div class='stimulus'>+</div>","null","","","","",""
"html-keyboard-response","144","366974","0.0-49.0-17.0-21.0-18.0-18.0-20.0-1.0","L2SPAN_2023_70","PRE","","null","","display digit","<div class=""stimulus"">9</div>","null","9,7,8,7,1,7,3","","","9",""
"html-keyboard-response","145","368782","0.0-49.0-17.0-21.0-18.0-18.0-20.0-2.0","L2SPAN_2023_70","PRE","","null","","display digit","<div class=""stimulus"">7</div>","null","9,7,8,7,1,7,3","","","7",""
"html-keyboard-response","146","370587","0.0-49.0-17.0-21.0-18.0-18.0-20.0-3.0","L2SPAN_2023_70","PRE","","null","","display digit","<div class=""stimulus"">8</div>","null","9,7,8,7,1,7,3","","","8",""
"html-keyboard-response","147","372389","0.0-49.0-17.0-21.0-18.0-18.0-20.0-4.0","L2SPAN_2023_70","PRE","","null","","display digit","<div class=""stimulus"">7</div>","null","9,7,8,7,1,7,3","","","7",""
"html-keyboard-response","148","374198","0.0-49.0-17.0-21.0-18.0-18.0-20.0-5.0","L2SPAN_2023_70","PRE","","null","","display digit","<div class=""stimulus"">1</div>","null","9,7,8,7,1,7,3","","","1",""
"html-keyboard-response","149","376007","0.0-49.0-17.0-21.0-18.0-18.0-20.0-6.0","L2SPAN_2023_70","PRE","","null","","display digit","<div class=""stimulus"">7</div>","null","9,7,8,7,1,7,3","","","7",""
"html-keyboard-response","150","377815","0.0-49.0-17.0-21.0-18.0-18.0-20.0-7.0","L2SPAN_2023_70","PRE","","null","","display digit","<div class=""stimulus"">3</div>","null","9,7,8,7,1,7,3","","","3",""
"survey-html-form-autofocus","151","397265","0.0-49.0-17.0-21.0-18.0-18.0-20.0-8.0","L2SPAN_2023_70","PRE","","18780","{""recall"":""9787173""}","recall","","","9787173","9787173","9787173","","true"
"html-keyboard-response","152","398740","0.0-49.0-17.0-21.0-18.0-18.0-20.0-9.0","L2SPAN_2023_70","PRE","","null","","fixation cross","<div class='stimulus'>+</div>","null","","","","",""
"html-keyboard-response","153","400542","0.0-49.0-17.0-21.0-18.0-18.0-20.0-10.0","L2SPAN_2023_70","PRE","","null","","display digit","<div class=""stimulus"">4</div>","null","4,5,7,6,1,3,1,6,5,2,7,0,5","","","4",""
"html-keyboard-response","154","402349","0.0-49.0-17.0-21.0-18.0-18.0-20.0-11.0","L2SPAN_2023_70","PRE","","null","","display digit","<div class=""stimulus"">5</div>","null","4,5,7,6,1,3,1,6,5,2,7,0,5","","","5",""
"html-keyboard-response","155","404157","0.0-49.0-17.0-21.0-18.0-18.0-20.0-12.0","L2SPAN_2023_70","PRE","","null","","display digit","<div class=""stimulus"">7</div>","null","4,5,7,6,1,3,1,6,5,2,7,0,5","","","7",""
"html-keyboard-response","156","405965","0.0-49.0-17.0-21.0-18.0-18.0-20.0-13.0","L2SPAN_2023_70","PRE","","null","","display digit","<div class=""stimulus"">6</div>","null","4,5,7,6,1,3,1,6,5,2,7,0,5","","","6",""
"html-keyboard-response","157","407770","0.0-49.0-17.0-21.0-18.0-18.0-20.0-14.0","L2SPAN_2023_70","PRE","","null","","display digit","<div class=""stimulus"">1</div>","null","4,5,7,6,1,3,1,6,5,2,7,0,5","","","1",""
"html-keyboard-response","158","409571","0.0-49.0-17.0-21.0-18.0-18.0-20.0-15.0","L2SPAN_2023_70","PRE","","null","","display digit","<div class=""stimulus"">3</div>","null","4,5,7,6,1,3,1,6,5,2,7,0,5","","","3",""
"html-keyboard-response","159","411363","0.0-49.0-17.0-21.0-18.0-18.0-20.0-16.0","L2SPAN_2023_70","PRE","","null","","display digit","<div class=""stimulus"">1</div>","null","4,5,7,6,1,3,1,6,5,2,7,0,5","","","1",""
"html-keyboard-response","160","413155","0.0-49.0-17.0-21.0-18.0-18.0-20.0-17.0","L2SPAN_2023_70","PRE","","null","","display digit","<div class=""stimulus"">6</div>","null","4,5,7,6,1,3,1,6,5,2,7,0,5","","","6",""
"html-keyboard-response","161","414958","0.0-49.0-17.0-21.0-18.0-18.0-20.0-18.0","L2SPAN_2023_70","PRE","","null","","display digit","<div class=""stimulus"">5</div>","null","4,5,7,6,1,3,1,6,5,2,7,0,5","","","5",""
"html-keyboard-response","162","416752","0.0-49.0-17.0-21.0-18.0-18.0-20.0-19.0","L2SPAN_2023_70","PRE","","null","","display digit","<div class=""stimulus"">2</div>","null","4,5,7,6,1,3,1,6,5,2,7,0,5","","","2",""
"html-keyboard-response","163","418557","0.0-49.0-17.0-21.0-18.0-18.0-20.0-20.0","L2SPAN_2023_70","PRE","","null","","display digit","<div class=""stimulus"">7</div>","null","4,5,7,6,1,3,1,6,5,2,7,0,5","","","7",""
"html-keyboard-response","164","420363","0.0-49.0-17.0-21.0-18.0-18.0-20.0-21.0","L2SPAN_2023_70","PRE","","null","","display digit","<div class=""stimulus"">0</div>","null","4,5,7,6,1,3,1,6,5,2,7,0,5","","","0",""
"html-keyboard-response","165","422172","0.0-49.0-17.0-21.0-18.0-18.0-20.0-22.0","L2SPAN_2023_70","PRE","","null","","display digit","<div class=""stimulus"">5</div>","null","4,5,7,6,1,3,1,6,5,2,7,0,5","","","5",""
"survey-html-form-autofocus","166","441932","0.0-49.0-17.0-21.0-18.0-18.0-20.0-23.0","L2SPAN_2023_70","PRE","","19084.80000001192","{""recall"":""3161705""}","recall","","","4576131652705","3161705","1652705","","false"
"html-keyboard-response","167","443404","0.0-49.0-17.0-21.0-18.0-18.0-20.0-24.0-0.0","L2SPAN_2023_70","PRE","","null","","fixation cross","<div class='stimulus'>+</div>","null","","","","",""
"html-keyboard-response","168","445199","0.0-49.0-17.0-21.0-18.0-18.0-20.0-24.0-1.0","L2SPAN_2023_70","PRE","","null","","display digit","<div class=""stimulus"">6</div>","null","6,0,9,8,5,3,9,7,9","","","6",""
"html-keyboard-response","169","447004","0.0-49.0-17.0-21.0-18.0-18.0-20.0-24.0-2.0","L2SPAN_2023_70","PRE","","null","","display digit","<div class=""stimulus"">0</div>","null","6,0,9,8,5,3,9,7,9","","","0",""
"html-keyboard-response","170","448809","0.0-49.0-17.0-21.0-18.0-18.0-20.0-24.0-3.0","L2SPAN_2023_70","PRE","","null","","display digit","<div class=""stimulus"">9</div>","null","6,0,9,8,5,3,9,7,9","","","9",""
"html-keyboard-response","171","450612","0.0-49.0-17.0-21.0-18.0-18.0-20.0-24.0-4.0","L2SPAN_2023_70","PRE","","null","","display digit","<div class=""stimulus"">8</div>","null","6,0,9,8,5,3,9,7,9","","","8",""
"html-keyboard-response","172","452408","0.0-49.0-17.0-21.0-18.0-18.0-20.0-24.0-5.0","L2SPAN_2023_70","PRE","","null","","display digit","<div class=""stimulus"">5</div>","null","6,0,9,8,5,3,9,7,9","","","5",""
"html-keyboard-response","173","454212","0.0-49.0-17.0-21.0-18.0-18.0-20.0-24.0-6.0","L2SPAN_2023_70","PRE","","null","","display digit","<div class=""stimulus"">3</div>","null","6,0,9,8,5,3,9,7,9","","","3",""
"html-keyboard-response","174","456020","0.0-49.0-17.0-21.0-18.0-18.0-20.0-24.0-7.0","L2SPAN_2023_70","PRE","","null","","display digit","<div class=""stimulus"">9</div>","null","6,0,9,8,5,3,9,7,9","","","9",""
"html-keyboard-response","175","457827","0.0-49.0-17.0-21.0-18.0-18.0-20.0-24.0-8.0","L2SPAN_2023_70","PRE","","null","","display digit","<div class=""stimulus"">7</div>","null","6,0,9,8,5,3,9,7,9","","","7",""
"html-keyboard-response","176","459627","0.0-49.0-17.0-21.0-18.0-18.0-20.0-24.0-9.0","L2SPAN_2023_70","PRE","","null","","display digit","<div class=""stimulus"">9</div>","null","6,0,9,8,5,3,9,7,9","","","9",""
"survey-html-form-autofocus","177","492731","0.0-49.0-17.0-21.0-18.0-18.0-20.0-24.0-10.0","L2SPAN_2023_70","PRE","","32429.30000001192","{""recall"":""46093579""}","recall","","","609853979","46093579","09853979","","false"
"html-keyboard-response","178","494207","0.0-49.0-17.0-21.0-18.0-18.0-20.0-24.0-11.0","L2SPAN_2023_70","PRE","","null","","fixation cross","<div class='stimulus'>+</div>","null","","","","",""
"html-keyboard-response","179","496009","0.0-49.0-17.0-21.0-18.0-18.0-20.0-24.0-12.0","L2SPAN_2023_70","PRE","","null","","display digit","<div class=""stimulus"">9</div>","null","9,5,0,2,5,0,9,0,6,3,0,7","","","9",""
"html-keyboard-response","180","497810","0.0-49.0-17.0-21.0-18.0-18.0-20.0-24.0-13.0","L2SPAN_2023_70","PRE","","null","","display digit","<div class=""stimulus"">5</div>","null","9,5,0,2,5,0,9,0,6,3,0,7","","","5",""
"html-keyboard-response","181","499618","0.0-49.0-17.0-21.0-18.0-18.0-20.0-24.0-14.0","L2SPAN_2023_70","PRE","","null","","display digit","<div class=""stimulus"">0</div>","null","9,5,0,2,5,0,9,0,6,3,0,7","","","0",""
"html-keyboard-response","182","501422","0.0-49.0-17.0-21.0-18.0-18.0-20.0-24.0-15.0","L2SPAN_2023_70","PRE","","null","","display digit","<div class=""stimulus"">2</div>","null","9,5,0,2,5,0,9,0,6,3,0,7","","","2",""
"html-keyboard-response","183","503214","0.0-49.0-17.0-21.0-18.0-18.0-20.0-24.0-16.0","L2SPAN_2023_70","PRE","","null","","display digit","<div class=""stimulus"">5</div>","null","9,5,0,2,5,0,9,0,6,3,0,7","","","5",""
"html-keyboard-response","184","505018","0.0-49.0-17.0-21.0-18.0-18.0-20.0-24.0-17.0","L2SPAN_2023_70","PRE","","null","","display digit","<div class=""stimulus"">0</div>","null","9,5,0,2,5,0,9,0,6,3,0,7","","","0",""
"html-keyboard-response","185","506825","0.0-49.0-17.0-21.0-18.0-18.0-20.0-24.0-18.0","L2SPAN_2023_70","PRE","","null","","display digit","<div class=""stimulus"">9</div>","null","9,5,0,2,5,0,9,0,6,3,0,7","","","9",""
"html-keyboard-response","186","508634","0.0-49.0-17.0-21.0-18.0-18.0-20.0-24.0-19.0","L2SPAN_2023_70","PRE","","null","","display digit","<div class=""stimulus"">0</div>","null","9,5,0,2,5,0,9,0,6,3,0,7","","","0",""
"html-keyboard-response","187","510433","0.0-49.0-17.0-21.0-18.0-18.0-20.0-24.0-20.0","L2SPAN_2023_70","PRE","","null","","display digit","<div class=""stimulus"">6</div>","null","9,5,0,2,5,0,9,0,6,3,0,7","","","6",""
"html-keyboard-response","188","512241","0.0-49.0-17.0-21.0-18.0-18.0-20.0-24.0-21.0","L2SPAN_2023_70","PRE","","null","","display digit","<div class=""stimulus"">3</div>","null","9,5,0,2,5,0,9,0,6,3,0,7","","","3",""
"html-keyboard-response","189","514042","0.0-49.0-17.0-21.0-18.0-18.0-20.0-24.0-22.0","L2SPAN_2023_70","PRE","","null","","display digit","<div class=""stimulus"">0</div>","null","9,5,0,2,5,0,9,0,6,3,0,7","","","0",""
"html-keyboard-response","190","515842","0.0-49.0-17.0-21.0-18.0-18.0-20.0-24.0-23.0","L2SPAN_2023_70","PRE","","null","","display digit","<div class=""stimulus"">7</div>","null","9,5,0,2,5,0,9,0,6,3,0,7","","","7",""
"survey-html-form-autofocus","191","528363","0.0-49.0-17.0-21.0-18.0-18.0-20.0-24.0-24.0","L2SPAN_2023_70","PRE","","11850.099999964237","{""recall"":""50906037""}","recall","","","950250906307","50906037","50906307","","false"
"html-keyboard-response","192","533900","0.0-50.0","L2SPAN_2023_70","PRE","","4867.300000011921","","","<p>End of the experiment.<br/>			   		You reached level 8 and your					total score is 10.</p>					<p class=""important"">PRESS SPACE TO FINISH THE EXPERIMENT.</p>","32","","","","",""
"fullscreen","193","534921","0.0-51.0","L2SPAN_2023_70","PRE","true","","","","","","","","","",""
"pavlovia","194","535597","0.0-52.0","L2SPAN_2023_70","PRE","","","","","","","","","","",""
