key_resp.keys,key_resp.rt,key_resp_2.keys,key_resp_2.rt,key_resp_3.keys,key_resp_3.corr,key_resp_3.rt,trials.thisRepN,trials.thisTrialN,trials.thisN,trials.thisIndex,trials.ran,Word,Experiment,root_syllable,phonemes_firstsyllable,spatial_verb,Number_of_morphemes,lexical_freq,lex_freq_lexesp,Item_Type,list,wav,CorrResp,CorrRespNumb,participant,date,expName,psychopyVersion,OS,frameRate,key_resp_4.keys,key_resp_4.rt,key_resp_6.keys,key_resp_6.corr,key_resp_6.rt,trials_2.thisRepN,trials_2.thisTrialN,trials_2.thisN,trials_2.thisIndex,trials_2.ran,CorRespNumb,key_resp_5.keys,key_resp_5.rt
space,39.0401,y,2.7177,1,1,2.0068,0,0,0,0,1,casita,practica,NA,NA,NA,NA,NA,NA,NA,NA,casita.wav,left,1,L2SPAN_2023_25,2023-09-06_17h45.05.454,auditory_ldt_2023_esp_list3,2021.1.1,MacIntel,60.0024001,,,,,,,,,,,,,
,,,,1,1,2.3028,0,1,1,1,1,acabar,practica,NA,NA,NA,NA,NA,NA,NA,NA,acabar.wav,left,1,L2SPAN_2023_25,2023-09-06_17h45.05.454,auditory_ldt_2023_esp_list3,2021.1.1,MacIntel,60.0024001,,,,,,,,,,,,,
,,,,0,1,1.3854,0,2,2,2,1,arujar,practica,NA,NA,NA,NA,NA,NA,NA,NA,arujar.wav,right,0,L2SPAN_2023_25,2023-09-06_17h45.05.454,auditory_ldt_2023_esp_list3,2021.1.1,MacIntel,60.0024001,,,,,,,,,,,,,
,,,,1,1,0.6365,0,3,3,3,1,gatito,practica,NA,NA,NA,NA,NA,NA,NA,NA,gatito.wav,left,1,L2SPAN_2023_25,2023-09-06_17h45.05.454,auditory_ldt_2023_esp_list3,2021.1.1,MacIntel,60.0024001,,,,,,,,,,,,,
,,,,0,1,1.1192,0,4,4,4,1,deslopar,practica,NA,NA,NA,NA,NA,NA,NA,NA,deslopar.wav,right,0,L2SPAN_2023_25,2023-09-06_17h45.05.454,auditory_ldt_2023_esp_list3,2021.1.1,MacIntel,60.0024001,,,,,,,,,,,,,
,,,,0,1,0.8185,0,5,5,5,1,masuto,practica,NA,NA,NA,NA,NA,NA,NA,NA,masuto.wav,right,0,L2SPAN_2023_25,2023-09-06_17h45.05.454,auditory_ldt_2023_esp_list3,2021.1.1,MacIntel,60.0024001,,,,,,,,,,,,,
,,,,,,,,,,,,solcito,morfosyllable,coincidente,3,NA,NA,NA,NA,word,"1,2and3",solcito.wav,left,,L2SPAN_2023_25,2023-09-06_17h45.05.454,auditory_ldt_2023_esp_list3,2021.1.1,MacIntel,60.0024001,k,10.4133,0,0,1.9918,0,0,0,0,1,1,,
,,,,,,,,,,,,destrudar,visuospatial,NA,NA,NA,NA,NA,NA,pseudoword,"1,2and3",destrudar.wav,right,,L2SPAN_2023_25,2023-09-06_17h45.05.454,auditory_ldt_2023_esp_list3,2021.1.1,MacIntel,60.0024001,,,1,0,0.8534,0,1,1,1,1,0,,
,,,,,,,,,,,,didiais,InflectionalVerbs,NA,NA,NA,NA,NA,NA,pseudoword,3,didiais.wav,right,,L2SPAN_2023_25,2023-09-06_17h45.05.454,auditory_ldt_2023_esp_list3,2021.1.1,MacIntel,60.0024001,,,1,0,2.3682,0,2,2,2,1,0,,
,,,,,,,,,,,,tosias,InflectionalVerbs,NA,NA,NA,3,Low,1.42,word,3,tosias.wav,left,,L2SPAN_2023_25,2023-09-06_17h45.05.454,auditory_ldt_2023_esp_list3,2021.1.1,MacIntel,60.0024001,,,1,1,1.6699,0,3,3,3,1,1,,
,,,,,,,,,,,,teruto,morfosyllable,NA,NA,NA,NA,NA,NA,pseudoword,"1,2and3",teruto.wav,right,,L2SPAN_2023_25,2023-09-06_17h45.05.454,auditory_ldt_2023_esp_list3,2021.1.1,MacIntel,60.0024001,,,0,1,0.7363,0,4,4,4,1,0,,
,,,,,,,,,,,,uavuto,morfosyllable,NA,NA,NA,NA,NA,NA,pseudoword,"1,2and3",uavuto.wav,right,,L2SPAN_2023_25,2023-09-06_17h45.05.454,auditory_ldt_2023_esp_list3,2021.1.1,MacIntel,60.0024001,,,0,1,0.8547,0,5,5,5,1,0,,
,,,,,,,,,,,,cutia,InflectionalVerbs,NA,NA,NA,NA,NA,NA,pseudoword,3,cutia.wav,right,,L2SPAN_2023_25,2023-09-06_17h45.05.454,auditory_ldt_2023_esp_list3,2021.1.1,MacIntel,60.0024001,,,1,0,0.9175,0,6,6,6,1,0,,
,,,,,,,,,,,,parias,InflectionalVerbs,NA,NA,NA,3,Low,5.86,word,3,parias.wav,left,,L2SPAN_2023_25,2023-09-06_17h45.05.454,auditory_ldt_2023_esp_list3,2021.1.1,MacIntel,60.0024001,,,1,1,1.5015,0,7,7,7,1,1,,
,,,,,,,,,,,,fuciais,InflectionalVerbs,NA,NA,NA,NA,NA,NA,pseudoword,3,fuciais.wav,right,,L2SPAN_2023_25,2023-09-06_17h45.05.454,auditory_ldt_2023_esp_list3,2021.1.1,MacIntel,60.0024001,,,1,0,1.3558,0,8,8,8,1,0,,
,,,,,,,,,,,,aberfar,visuospatial,NA,NA,NA,NA,NA,NA,pseudoword,"1,2and3",aberfar.wav,right,,L2SPAN_2023_25,2023-09-06_17h45.05.454,auditory_ldt_2023_esp_list3,2021.1.1,MacIntel,60.0024001,,,1,0,1.296,0,9,9,9,1,0,,
,,,,,,,,,,,,anular,visuospatial,NA,NA,no,NA,NA,NA,word,"1,2and3",anular.wav,left,,L2SPAN_2023_25,2023-09-06_17h45.05.454,auditory_ldt_2023_esp_list3,2021.1.1,MacIntel,60.0024001,,,1,1,0.5704,0,10,10,10,1,1,,
,,,,,,,,,,,,arrastrar,visuospatial,NA,NA,yes,NA,NA,NA,word,"1,2and3",arrastrar.wav,left,,L2SPAN_2023_25,2023-09-06_17h45.05.454,auditory_ldt_2023_esp_list3,2021.1.1,MacIntel,60.0024001,,,1,1,0.9381,0,11,11,11,1,1,,
,,,,,,,,,,,,ramita,morfosyllable,diferente,NA,NA,NA,NA,NA,word,"1,2and3",ramita.wav,left,,L2SPAN_2023_25,2023-09-06_17h45.05.454,auditory_ldt_2023_esp_list3,2021.1.1,MacIntel,60.0024001,,,0,0,0.8244,0,12,12,12,1,1,,
,,,,,,,,,,,,vendiais,InflectionalVerbs,NA,NA,NA,4,High,22.74,word,3,vendiais.wav,left,,L2SPAN_2023_25,2023-09-06_17h45.05.454,auditory_ldt_2023_esp_list3,2021.1.1,MacIntel,60.0024001,,,1,1,1.0226,0,13,13,13,1,1,,
,,,,,,,,,,,,flunsuto,morfosyllable,NA,NA,NA,NA,NA,NA,pseudoword,"1,2and3",flunsuto.wav,right,,L2SPAN_2023_25,2023-09-06_17h45.05.454,auditory_ldt_2023_esp_list3,2021.1.1,MacIntel,60.0024001,,,0,1,1.7865,0,14,14,14,1,0,,
,,,,,,,,,,,,kirruto,morfosyllable,NA,NA,NA,NA,NA,NA,pseudoword,"1,2and3",kirruto.wav,right,,L2SPAN_2023_25,2023-09-06_17h45.05.454,auditory_ldt_2023_esp_list3,2021.1.1,MacIntel,60.0024001,,,0,1,1.4899,0,15,15,15,1,0,,
,,,,,,,,,,,,agromar,visuospatial,NA,NA,NA,NA,NA,NA,pseudoword,"1,2and3",agromar.wav,right,,L2SPAN_2023_25,2023-09-06_17h45.05.454,auditory_ldt_2023_esp_list3,2021.1.1,MacIntel,60.0024001,,,1,0,0.5188,0,16,16,16,1,0,,
,,,,,,,,,,,,kinuto,morfosyllable,NA,NA,NA,NA,NA,NA,pseudoword,"1,2and3",kinuto.wav,right,,L2SPAN_2023_25,2023-09-06_17h45.05.454,auditory_ldt_2023_esp_list3,2021.1.1,MacIntel,60.0024001,,,0,1,1.3002,0,17,17,17,1,0,,
,,,,,,,,,,,,traiais,InflectionalVerbs,NA,NA,NA,4,High,17.41,word,3,traiais.wav,left,,L2SPAN_2023_25,2023-09-06_17h45.05.454,auditory_ldt_2023_esp_list3,2021.1.1,MacIntel,60.0024001,,,1,1,0.9386,0,18,18,18,1,1,,
,,,,,,,,,,,,piecito,morfosyllable,coincidente,3,NA,NA,NA,NA,word,"1,2and3",piecito.wav,left,,L2SPAN_2023_25,2023-09-06_17h45.05.454,auditory_ldt_2023_esp_list3,2021.1.1,MacIntel,60.0024001,,,0,0,0.8687,0,19,19,19,1,1,,
,,,,,,,,,,,,poesuto,morfosyllable,NA,NA,NA,NA,NA,NA,pseudoword,"1,2and3",poesuto.wav,right,,L2SPAN_2023_25,2023-09-06_17h45.05.454,auditory_ldt_2023_esp_list3,2021.1.1,MacIntel,60.0024001,,,1,0,1.5559,0,20,20,20,1,0,,
,,,,,,,,,,,,abordar,visuospatial,NA,NA,yes,NA,NA,NA,word,"1,2and3",abordar.wav,left,,L2SPAN_2023_25,2023-09-06_17h45.05.454,auditory_ldt_2023_esp_list3,2021.1.1,MacIntel,60.0024001,,,1,1,1.0561,0,21,21,21,1,1,,
,,,,,,,,,,,,flancito,morfosyllable,coincidente,4,NA,NA,NA,NA,word,"1,2and3",flancito.wav,left,,L2SPAN_2023_25,2023-09-06_17h45.05.454,auditory_ldt_2023_esp_list3,2021.1.1,MacIntel,60.0024001,,,1,1,0.7552,0,22,22,22,1,1,,
,,,,,,,,,,,,gemiais,InflectionalVerbs,NA,NA,NA,4,Low,1.42,word,3,gemiais.wav,left,,L2SPAN_2023_25,2023-09-06_17h45.05.454,auditory_ldt_2023_esp_list3,2021.1.1,MacIntel,60.0024001,,,1,1,1.6858,0,23,23,23,1,1,,
,,,,,,,,,,,,despegar,visuospatial,NA,NA,yes,NA,NA,NA,word,"1,2and3",despegar.wav,left,,L2SPAN_2023_25,2023-09-06_17h45.05.454,auditory_ldt_2023_esp_list3,2021.1.1,MacIntel,60.0024001,,,1,1,0.8015,0,24,24,24,1,1,,
,,,,,,,,,,,,potias,InflectionalVerbs,NA,NA,NA,NA,NA,NA,pseudoword,3,potias.wav,right,,L2SPAN_2023_25,2023-09-06_17h45.05.454,auditory_ldt_2023_esp_list3,2021.1.1,MacIntel,60.0024001,,,1,0,1.8064,0,25,25,25,1,0,,
,,,,,,,,,,,,nacia,InflectionalVerbs,NA,NA,NA,2,High,21.67,word,3,nacia.wav,left,,L2SPAN_2023_25,2023-09-06_17h45.05.454,auditory_ldt_2023_esp_list3,2021.1.1,MacIntel,60.0024001,,,0,0,0.784,0,26,26,26,1,1,,
,,,,,,,,,,,,torito,morfosyllable,diferente,NA,NA,NA,NA,NA,word,"1,2and3",torito.wav,left,,L2SPAN_2023_25,2023-09-06_17h45.05.454,auditory_ldt_2023_esp_list3,2021.1.1,MacIntel,60.0024001,,,1,1,0.6183,0,27,27,27,1,1,,
,,,,,,,,,,,,nisias,InflectionalVerbs,NA,NA,NA,NA,NA,NA,pseudoword,3,nisias.wav,right,,L2SPAN_2023_25,2023-09-06_17h45.05.454,auditory_ldt_2023_esp_list3,2021.1.1,MacIntel,60.0024001,,,1,0,1.0522,0,28,28,28,1,0,,
,,,,,,,,,,,,reycito,morfosyllable,coincidente,3,NA,NA,NA,NA,word,"1,2and3",reycito.wav,left,,L2SPAN_2023_25,2023-09-06_17h45.05.454,auditory_ldt_2023_esp_list3,2021.1.1,MacIntel,60.0024001,,,1,1,2.5171,0,29,29,29,1,1,,
,,,,,,,,,,,,vocia,InflectionalVerbs,NA,NA,NA,NA,NA,NA,pseudoword,3,vocia.wav,right,,L2SPAN_2023_25,2023-09-06_17h45.05.454,auditory_ldt_2023_esp_list3,2021.1.1,MacIntel,60.0024001,,,0,1,1.0246,0,30,30,30,1,0,,
,,,,,,,,,,,,descungiar,visuospatial,NA,NA,NA,NA,NA,NA,pseudoword,"1,2and3",descungiar.wav,right,,L2SPAN_2023_25,2023-09-06_17h45.05.454,auditory_ldt_2023_esp_list3,2021.1.1,MacIntel,60.0024001,,,1,0,3.2898,0,31,31,31,1,0,,
,,,,,,,,,,,,trencito,morfosyllable,coincidente,4,NA,NA,NA,NA,word,"1,2and3",trencito.wav,left,,L2SPAN_2023_25,2023-09-06_17h45.05.454,auditory_ldt_2023_esp_list3,2021.1.1,MacIntel,60.0024001,,,0,0,0.7768,0,32,32,32,1,1,,
,,,,,,,,,,,,apasfrar,visuospatial,NA,NA,NA,NA,NA,NA,pseudoword,"1,2and3",apasfrar.wav,right,,L2SPAN_2023_25,2023-09-06_17h45.05.454,auditory_ldt_2023_esp_list3,2021.1.1,MacIntel,60.0024001,,,1,0,0.7577,0,33,33,33,1,0,,
,,,,,,,,,,,,pedias,InflectionalVerbs,NA,NA,NA,3,High,50.1,word,3,pedias.wav,left,,L2SPAN_2023_25,2023-09-06_17h45.05.454,auditory_ldt_2023_esp_list3,2021.1.1,MacIntel,60.0024001,,,1,1,1.8435,0,34,34,34,1,1,,
,,,,,,,,,,,,fegiais,InflectionalVerbs,NA,NA,NA,NA,NA,NA,pseudoword,3,fegiais.wav,right,,L2SPAN_2023_25,2023-09-06_17h45.05.454,auditory_ldt_2023_esp_list3,2021.1.1,MacIntel,60.0024001,,,0,1,2.0194,0,35,35,35,1,0,,
,,,,,,,,,,,,camita,morfosyllable,diferente,NA,NA,NA,NA,NA,word,"1,2and3",camita.wav,left,,L2SPAN_2023_25,2023-09-06_17h45.05.454,auditory_ldt_2023_esp_list3,2021.1.1,MacIntel,60.0024001,,,1,1,0.9775,0,36,36,36,1,1,,
,,,,,,,,,,,,regiais,InflectionalVerbs,NA,NA,NA,4,Low,1.95,word,3,regiais.wav,left,,L2SPAN_2023_25,2023-09-06_17h45.05.454,auditory_ldt_2023_esp_list3,2021.1.1,MacIntel,60.0024001,,,0,0,3.2203,0,37,37,37,1,1,,
,,,,,,,,,,,,florcita,morfosyllable,coincidente,4,NA,NA,NA,NA,word,"1,2and3",florcita.wav,left,,L2SPAN_2023_25,2023-09-06_17h45.05.454,auditory_ldt_2023_esp_list3,2021.1.1,MacIntel,60.0024001,,,0,0,0.9675,0,38,38,38,1,1,,
,,,,,,,,,,,,reasuto,morfosyllable,NA,NA,NA,NA,NA,NA,pseudoword,"1,2and3",reasuto.wav,right,,L2SPAN_2023_25,2023-09-06_17h45.05.454,auditory_ldt_2023_esp_list3,2021.1.1,MacIntel,60.0024001,,,1,0,2.0663,0,39,39,39,1,0,,
,,,,,,,,,,,,descansar,visuospatial,NA,NA,no,NA,NA,NA,word,"1,2and3",descansar.wav,left,,L2SPAN_2023_25,2023-09-06_17h45.05.454,auditory_ldt_2023_esp_list3,2021.1.1,MacIntel,60.0024001,,,1,1,0.669,0,40,40,40,1,1,,
,,,,,,,,,,,,galsuto,morfosyllable,NA,NA,NA,NA,NA,NA,pseudoword,"1,2and3",galsuto.wav,right,,L2SPAN_2023_25,2023-09-06_17h45.05.454,auditory_ldt_2023_esp_list3,2021.1.1,MacIntel,60.0024001,,,0,1,0.8866,0,41,41,41,1,0,,
,,,,,,,,,,,,te単ias,InflectionalVerbs,NA,NA,NA,3,Low,0.36,word,3,te単ias.wav,left,,L2SPAN_2023_25,2023-09-06_17h45.05.454,auditory_ldt_2023_esp_list3,2021.1.1,MacIntel,60.0024001,,,1,1,0.8703,0,42,42,42,1,1,,
,,,,,,,,,,,,akirsar,visuospatial,NA,NA,NA,NA,NA,NA,pseudoword,"1,2and3",akirsar.wav,right,,L2SPAN_2023_25,2023-09-06_17h45.05.454,auditory_ldt_2023_esp_list3,2021.1.1,MacIntel,60.0024001,,,1,0,0.9898,0,43,43,43,1,0,,
,,,,,,,,,,,,aclarar,visuospatial,NA,NA,no,NA,NA,NA,word,"1,2and3",aclarar.wav,left,,L2SPAN_2023_25,2023-09-06_17h45.05.454,auditory_ldt_2023_esp_list3,2021.1.1,MacIntel,60.0024001,,,1,1,1.4596,0,44,44,44,1,1,,
,,,,,,,,,,,,noiais,InflectionalVerbs,NA,NA,NA,NA,NA,NA,pseudoword,3,noiais.wav,right,,L2SPAN_2023_25,2023-09-06_17h45.05.454,auditory_ldt_2023_esp_list3,2021.1.1,MacIntel,60.0024001,,,0,1,1.7407,0,45,45,45,1,0,,
,,,,,,,,,,,,afrontar,visuospatial,NA,NA,no,NA,NA,NA,word,"1,2and3",afrontar.wav,left,,L2SPAN_2023_25,2023-09-06_17h45.05.454,auditory_ldt_2023_esp_list3,2021.1.1,MacIntel,60.0024001,,,1,1,1.1006,0,46,46,46,1,1,,
,,,,,,,,,,,,nulvia,InflectionalVerbs,NA,NA,NA,NA,NA,NA,pseudoword,3,nulvia.wav,right,,L2SPAN_2023_25,2023-09-06_17h45.05.454,auditory_ldt_2023_esp_list3,2021.1.1,MacIntel,60.0024001,,,1,0,1.389,0,47,47,47,1,0,,
,,,,,,,,,,,,adentrar,visuospatial,NA,NA,yes,NA,NA,NA,word,"1,2and3",adentrar.wav,left,,L2SPAN_2023_25,2023-09-06_17h45.05.454,auditory_ldt_2023_esp_list3,2021.1.1,MacIntel,60.0024001,,,1,1,0.9225,0,48,48,48,1,1,,
,,,,,,,,,,,,torciais,InflectionalVerbs,NA,NA,NA,4,Low,1.24,word,3,torciais.wav,left,,L2SPAN_2023_25,2023-09-06_17h45.05.454,auditory_ldt_2023_esp_list3,2021.1.1,MacIntel,60.0024001,,,0,0,2.0159,0,49,49,49,1,1,,
,,,,,,,,,,,,pancito,morfosyllable,coincidente,3,NA,NA,NA,NA,word,"1,2and3",pancito.wav,left,,L2SPAN_2023_25,2023-09-06_17h45.05.454,auditory_ldt_2023_esp_list3,2021.1.1,MacIntel,60.0024001,,,0,0,0.8523,0,50,50,50,1,1,,
,,,,,,,,,,,,tejia,InflectionalVerbs,NA,NA,NA,2,Low,4.26,word,3,tejia.wav,left,,L2SPAN_2023_25,2023-09-06_17h45.05.454,auditory_ldt_2023_esp_list3,2021.1.1,MacIntel,60.0024001,,,1,1,1.16,0,51,51,51,1,1,,
,,,,,,,,,,,,amanar,visuospatial,NA,NA,NA,NA,NA,NA,pseudoword,"1,2and3",amanar.wav,right,,L2SPAN_2023_25,2023-09-06_17h45.05.454,auditory_ldt_2023_esp_list3,2021.1.1,MacIntel,60.0024001,,,1,0,1.0841,0,52,52,52,1,0,,
,,,,,,,,,,,,aprobar,visuospatial,NA,NA,no,NA,NA,NA,word,"1,2and3",aprobar.wav,left,,L2SPAN_2023_25,2023-09-06_17h45.05.454,auditory_ldt_2023_esp_list3,2021.1.1,MacIntel,60.0024001,,,1,1,0.8343,0,53,53,53,1,1,,
,,,,,,,,,,,,salias,InflectionalVerbs,NA,NA,NA,3,High,169.12,word,3,salias.wav,left,,L2SPAN_2023_25,2023-09-06_17h45.05.454,auditory_ldt_2023_esp_list3,2021.1.1,MacIntel,60.0024001,,,1,1,1.3844,0,54,54,54,1,1,,
,,,,,,,,,,,,lomito,morfosyllable,diferente,NA,NA,NA,NA,NA,word,"1,2and3",lomito.wav,left,,L2SPAN_2023_25,2023-09-06_17h45.05.454,auditory_ldt_2023_esp_list3,2021.1.1,MacIntel,60.0024001,,,0,0,1.3032,0,55,55,55,1,1,,
,,,,,,,,,,,,pojia,InflectionalVerbs,NA,NA,NA,NA,NA,NA,pseudoword,3,pojia.wav,right,,L2SPAN_2023_25,2023-09-06_17h45.05.454,auditory_ldt_2023_esp_list3,2021.1.1,MacIntel,60.0024001,,,0,1,2.1975,0,56,56,56,1,0,,
,,,,,,,,,,,,desconfiar,visuospatial,NA,NA,no,NA,NA,NA,word,"1,2and3",desconfiar.wav,left,,L2SPAN_2023_25,2023-09-06_17h45.05.454,auditory_ldt_2023_esp_list3,2021.1.1,MacIntel,60.0024001,,,1,1,0.9308,0,57,57,57,1,1,,
,,,,,,,,,,,,puertito,morfosyllable,diferente,NA,NA,NA,NA,NA,word,"1,2and3",puertito.wav,left,,L2SPAN_2023_25,2023-09-06_17h45.05.454,auditory_ldt_2023_esp_list3,2021.1.1,MacIntel,60.0024001,,,0,0,0.7517,0,58,58,58,1,1,,
,,,,,,,,,,,,creias,InflectionalVerbs,NA,NA,NA,3,High,62.35,word,3,creias.wav,left,,L2SPAN_2023_25,2023-09-06_17h45.05.454,auditory_ldt_2023_esp_list3,2021.1.1,MacIntel,60.0024001,,,1,1,0.7043,0,59,59,59,1,1,,
,,,,,,,,,,,,plensuto,morfosyllable,NA,NA,NA,NA,NA,NA,pseudoword,"1,2and3",plensuto.wav,right,,L2SPAN_2023_25,2023-09-06_17h45.05.454,auditory_ldt_2023_esp_list3,2021.1.1,MacIntel,60.0024001,,,0,1,1.277,0,60,60,60,1,0,,
,,,,,,,,,,,,apirdar,visuospatial,NA,NA,NA,NA,NA,NA,pseudoword,"1,2and3",apirdar.wav,right,,L2SPAN_2023_25,2023-09-06_17h45.05.454,auditory_ldt_2023_esp_list3,2021.1.1,MacIntel,60.0024001,,,0,1,2.1287,0,61,61,61,1,0,,
,,,,,,,,,,,,descrefiar,visuospatial,NA,NA,NA,NA,NA,NA,pseudoword,"1,2and3",descrefiar.wav,right,,L2SPAN_2023_25,2023-09-06_17h45.05.454,auditory_ldt_2023_esp_list3,2021.1.1,MacIntel,60.0024001,,,1,0,2.946,0,62,62,62,1,0,,
,,,,,,,,,,,,herias,InflectionalVerbs,NA,NA,NA,3,Low,5.15,word,3,herias.wav,left,,L2SPAN_2023_25,2023-09-06_17h45.05.454,auditory_ldt_2023_esp_list3,2021.1.1,MacIntel,60.0024001,,,1,1,1.5256,0,63,63,63,1,1,,
,,,,,,,,,,,,venia,InflectionalVerbs,NA,NA,NA,2,High,50.81,word,3,venia.wav,left,,L2SPAN_2023_25,2023-09-06_17h45.05.454,auditory_ldt_2023_esp_list3,2021.1.1,MacIntel,60.0024001,,,1,1,0.8882,0,64,64,64,1,1,,
,,,,,,,,,,,,pumiais,InflectionalVerbs,NA,NA,NA,NA,NA,NA,pseudoword,3,pumiais.wav,right,,L2SPAN_2023_25,2023-09-06_17h45.05.454,auditory_ldt_2023_esp_list3,2021.1.1,MacIntel,60.0024001,,,1,0,2.4049,0,65,65,65,1,0,,
,,,,,,,,,,,,juonsuto,morfosyllable,NA,NA,NA,NA,NA,NA,pseudoword,"1,2and3",juonsuto.wav,right,,L2SPAN_2023_25,2023-09-06_17h45.05.454,auditory_ldt_2023_esp_list3,2021.1.1,MacIntel,60.0024001,,,0,1,1.6937,0,66,66,66,1,0,,
,,,,,,,,,,,,pelito,morfosyllable,diferente,NA,NA,NA,NA,NA,word,"1,2and3",pelito.wav,left,,L2SPAN_2023_25,2023-09-06_17h45.05.454,auditory_ldt_2023_esp_list3,2021.1.1,MacIntel,60.0024001,,,1,1,0.6862,0,67,67,67,1,1,,
,,,,,,,,,,,,carrito,morfosyllable,diferente,NA,NA,NA,NA,NA,word,"1,2and3",carrito.wav,left,,L2SPAN_2023_25,2023-09-06_17h45.05.454,auditory_ldt_2023_esp_list3,2021.1.1,MacIntel,60.0024001,,,1,1,0.721,0,68,68,68,1,1,,
,,,,,,,,,,,,molia,InflectionalVerbs,NA,NA,NA,2,Low,0.71,word,3,molia.wav,left,,L2SPAN_2023_25,2023-09-06_17h45.05.454,auditory_ldt_2023_esp_list3,2021.1.1,MacIntel,60.0024001,,,1,1,1.7581,0,69,69,69,1,1,,
,,,,,,,,,,,,vertia,InflectionalVerbs,NA,NA,NA,2,Low,1.24,word,3,vertia.wav,left,,L2SPAN_2023_25,2023-09-06_17h45.05.454,auditory_ldt_2023_esp_list3,2021.1.1,MacIntel,60.0024001,,,0,0,0.9758,0,70,70,70,1,1,,
,,,,,,,,,,,,anotar,visuospatial,NA,NA,no,NA,NA,NA,word,"1,2and3",anotar.wav,left,,L2SPAN_2023_25,2023-09-06_17h45.05.454,auditory_ldt_2023_esp_list3,2021.1.1,MacIntel,60.0024001,,,1,1,1.8039,0,71,71,71,1,1,,
,,,,,,,,,,,,puartuto,morfosyllable,NA,NA,NA,NA,NA,NA,pseudoword,"1,2and3",puartuto.wav,right,,L2SPAN_2023_25,2023-09-06_17h45.05.454,auditory_ldt_2023_esp_list3,2021.1.1,MacIntel,60.0024001,,,1,0,0.9694,0,72,72,72,1,0,,
,,,,,,,,,,,,barcito,morfosyllable,coincidente,3,NA,NA,NA,NA,word,"1,2and3",barcito.wav,left,,L2SPAN_2023_25,2023-09-06_17h45.05.454,auditory_ldt_2023_esp_list3,2021.1.1,MacIntel,60.0024001,,,1,1,0.6081,0,73,73,73,1,1,,
,,,,,,,,,,,,afirmar,visuospatial,NA,NA,no,NA,NA,NA,word,"1,2and3",afirmar.wav,left,,L2SPAN_2023_25,2023-09-06_17h45.05.454,auditory_ldt_2023_esp_list3,2021.1.1,MacIntel,60.0024001,,,1,1,1.2715,0,74,74,74,1,1,,
,,,,,,,,,,,,agartar,visuospatial,NA,NA,NA,NA,NA,NA,pseudoword,"1,2and3",agartar.wav,right,,L2SPAN_2023_25,2023-09-06_17h45.05.454,auditory_ldt_2023_esp_list3,2021.1.1,MacIntel,60.0024001,,,1,0,0.6358,0,75,75,75,1,0,,
,,,,,,,,,,,,apitar,visuospatial,NA,NA,NA,NA,NA,NA,pseudoword,"1,2and3",apitar.wav,right,,L2SPAN_2023_25,2023-09-06_17h45.05.454,auditory_ldt_2023_esp_list3,2021.1.1,MacIntel,60.0024001,,,0,1,1.0013,0,76,76,76,1,0,,
,,,,,,,,,,,,mordiais,InflectionalVerbs,NA,NA,NA,4,Low,3.55,word,3,mordiais.wav,left,,L2SPAN_2023_25,2023-09-06_17h45.05.454,auditory_ldt_2023_esp_list3,2021.1.1,MacIntel,60.0024001,,,0,0,1.0709,0,77,77,77,1,1,,
,,,,,,,,,,,,pielcita,morfosyllable,coincidente,4,NA,NA,NA,NA,word,"1,2and3",pielcita.wav,left,,L2SPAN_2023_25,2023-09-06_17h45.05.454,auditory_ldt_2023_esp_list3,2021.1.1,MacIntel,60.0024001,,,0,0,1.9192,0,78,78,78,1,1,,
,,,,,,,,,,,,acercar,visuospatial,NA,NA,yes,NA,NA,NA,word,"1,2and3",acercar.wav,left,,L2SPAN_2023_25,2023-09-06_17h45.05.454,auditory_ldt_2023_esp_list3,2021.1.1,MacIntel,60.0024001,,,1,1,1.1023,0,79,79,79,1,1,,
,,,,,,,,,,,,alubar,visuospatial,NA,NA,NA,NA,NA,NA,pseudoword,"1,2and3",alubar.wav,right,,L2SPAN_2023_25,2023-09-06_17h45.05.454,auditory_ldt_2023_esp_list3,2021.1.1,MacIntel,60.0024001,,,0,1,1.0603,0,80,80,80,1,0,,
,,,,,,,,,,,,arentar,visuospatial,NA,NA,NA,NA,NA,NA,pseudoword,"1,2and3",arentar.wav,right,,L2SPAN_2023_25,2023-09-06_17h45.05.454,auditory_ldt_2023_esp_list3,2021.1.1,MacIntel,60.0024001,,,1,0,0.618,0,81,81,81,1,0,,
,,,,,,,,,,,,volvia,InflectionalVerbs,NA,NA,NA,2,High,120.09,word,3,volvia.wav,left,,L2SPAN_2023_25,2023-09-06_17h45.05.454,auditory_ldt_2023_esp_list3,2021.1.1,MacIntel,60.0024001,,,1,1,1.1139,0,82,82,82,1,1,,
,,,,,,,,,,,,duduto,morfosyllable,NA,NA,NA,NA,NA,NA,pseudoword,"1,2and3",duduto.wav,right,,L2SPAN_2023_25,2023-09-06_17h45.05.454,auditory_ldt_2023_esp_list3,2021.1.1,MacIntel,60.0024001,,,0,1,2.1407,0,83,83,83,1,0,,
,,,,,,,,,,,,laguito,morfosyllable,diferente,NA,NA,NA,NA,NA,word,"1,2and3",laguito.wav,left,,L2SPAN_2023_25,2023-09-06_17h45.05.454,auditory_ldt_2023_esp_list3,2021.1.1,MacIntel,60.0024001,,,0,0,0.8821,0,84,84,84,1,1,,
,,,,,,,,,,,,asuibar,visuospatial,NA,NA,NA,NA,NA,NA,pseudoword,"1,2and3",asuibar.wav,right,,L2SPAN_2023_25,2023-09-06_17h45.05.454,auditory_ldt_2023_esp_list3,2021.1.1,MacIntel,60.0024001,,,0,1,1.2596,0,85,85,85,1,0,,
,,,,,,,,,,,,girtia,InflectionalVerbs,NA,NA,NA,NA,NA,NA,pseudoword,3,girtia.wav,right,,L2SPAN_2023_25,2023-09-06_17h45.05.454,auditory_ldt_2023_esp_list3,2021.1.1,MacIntel,60.0024001,,,0,1,1.2013,0,86,86,86,1,0,,
,,,,,,,,,,,,plancito,morfosyllable,coincidente,4,NA,NA,NA,NA,word,"1,2and3",plancito.wav,left,,L2SPAN_2023_25,2023-09-06_17h45.05.454,auditory_ldt_2023_esp_list3,2021.1.1,MacIntel,60.0024001,,,1,1,0.8607,0,87,87,87,1,1,,
,,,,,,,,,,,,mogiais,InflectionalVerbs,NA,NA,NA,NA,NA,NA,pseudoword,3,mogiais.wav,right,,L2SPAN_2023_25,2023-09-06_17h45.05.454,auditory_ldt_2023_esp_list3,2021.1.1,MacIntel,60.0024001,,,0,1,1.507,0,88,88,88,1,0,,
,,,,,,,,,,,,abriais,InflectionalVerbs,NA,NA,NA,4,High,48.85,word,3,abriais.wav,left,,L2SPAN_2023_25,2023-09-06_17h45.05.454,auditory_ldt_2023_esp_list3,2021.1.1,MacIntel,60.0024001,,,1,1,0.9602,0,89,89,89,1,1,,
,,,,,,,,,,,,litruto,morfosyllable,NA,NA,NA,NA,NA,NA,pseudoword,"1,2and3",litruto.wav,right,,L2SPAN_2023_25,2023-09-06_17h45.05.454,auditory_ldt_2023_esp_list3,2021.1.1,MacIntel,60.0024001,,,1,0,1.8129,0,90,90,90,1,0,,
,,,,,,,,,,,,fundia,InflectionalVerbs,NA,NA,NA,2,Low,1.78,word,3,fundia.wav,left,,L2SPAN_2023_25,2023-09-06_17h45.05.454,auditory_ldt_2023_esp_list3,2021.1.1,MacIntel,60.0024001,,,1,1,1.1437,0,91,91,91,1,1,,
,,,,,,,,,,,,limuto,morfosyllable,NA,NA,NA,NA,NA,NA,pseudoword,"1,2and3",limuto.wav,right,,L2SPAN_2023_25,2023-09-06_17h45.05.454,auditory_ldt_2023_esp_list3,2021.1.1,MacIntel,60.0024001,,,0,1,1.5892,0,92,92,92,1,0,,
,,,,,,,,,,,,leiais,InflectionalVerbs,NA,NA,NA,4,High,70.17,word,3,leiais.wav,left,,L2SPAN_2023_25,2023-09-06_17h45.05.454,auditory_ldt_2023_esp_list3,2021.1.1,MacIntel,60.0024001,,,1,1,1.0498,0,93,93,93,1,1,,
,,,,,,,,,,,,ratito,morfosyllable,diferente,NA,NA,NA,NA,NA,word,"1,2and3",ratito.wav,left,,L2SPAN_2023_25,2023-09-06_17h45.05.454,auditory_ldt_2023_esp_list3,2021.1.1,MacIntel,60.0024001,,,1,1,0.985,0,94,94,94,1,1,,
,,,,,,,,,,,,dedito,morfosyllable,diferente,NA,NA,NA,NA,NA,word,"1,2and3",dedito.wav,left,,L2SPAN_2023_25,2023-09-06_17h45.05.454,auditory_ldt_2023_esp_list3,2021.1.1,MacIntel,60.0024001,,,0,0,2.5434,0,95,95,95,1,1,,
,,,,,,,,,,,,metias,InflectionalVerbs,NA,NA,NA,3,High,23.09,word,3,metias.wav,left,,L2SPAN_2023_25,2023-09-06_17h45.05.454,auditory_ldt_2023_esp_list3,2021.1.1,MacIntel,60.0024001,,,1,1,1.9204,0,96,96,96,1,1,,
,,,,,,,,,,,,retuto,morfosyllable,NA,NA,NA,NA,NA,NA,pseudoword,"1,2and3",retuto.wav,right,,L2SPAN_2023_25,2023-09-06_17h45.05.454,auditory_ldt_2023_esp_list3,2021.1.1,MacIntel,60.0024001,,,0,1,0.7847,0,97,97,97,1,0,,
,,,,,,,,,,,,golcito,morfosyllable,coincidente,3,NA,NA,NA,NA,word,"1,2and3",golcito.wav,left,,L2SPAN_2023_25,2023-09-06_17h45.05.454,auditory_ldt_2023_esp_list3,2021.1.1,MacIntel,60.0024001,,,0,0,1.0223,0,98,98,98,1,1,,
,,,,,,,,,,,,perdiais,InflectionalVerbs,NA,NA,NA,4,High,78.87,word,3,perdiais.wav,left,,L2SPAN_2023_25,2023-09-06_17h45.05.454,auditory_ldt_2023_esp_list3,2021.1.1,MacIntel,60.0024001,,,1,1,1.6107,0,99,99,99,1,1,,
,,,,,,,,,,,,juancito,morfosyllable,coincidente,4,NA,NA,NA,NA,word,"1,2and3",juancito.wav,left,,L2SPAN_2023_25,2023-09-06_17h45.05.454,auditory_ldt_2023_esp_list3,2021.1.1,MacIntel,60.0024001,,,0,0,0.7992,0,100,100,100,1,1,,
,,,,,,,,,,,,remuta,morfosyllable,NA,NA,NA,NA,NA,NA,pseudoword,"1,2and3",remuta.wav,right,,L2SPAN_2023_25,2023-09-06_17h45.05.454,auditory_ldt_2023_esp_list3,2021.1.1,MacIntel,60.0024001,,,1,0,2.7612,0,101,101,101,1,0,,
,,,,,,,,,,,,aprongar,visuospatial,NA,NA,NA,NA,NA,NA,pseudoword,"1,2and3",aprongar.wav,right,,L2SPAN_2023_25,2023-09-06_17h45.05.454,auditory_ldt_2023_esp_list3,2021.1.1,MacIntel,60.0024001,,,1,0,0.7915,0,102,102,102,1,0,,
,,,,,,,,,,,,vasito,morfosyllable,diferente,NA,NA,NA,NA,NA,word,"1,2and3",vasito.wav,left,,L2SPAN_2023_25,2023-09-06_17h45.05.454,auditory_ldt_2023_esp_list3,2021.1.1,MacIntel,60.0024001,,,0,0,0.676,0,103,103,103,1,1,,
,,,,,,,,,,,,pensuto,morfosyllable,NA,NA,NA,NA,NA,NA,pseudoword,"1,2and3",pensuto.wav,right,,L2SPAN_2023_25,2023-09-06_17h45.05.454,auditory_ldt_2023_esp_list3,2021.1.1,MacIntel,60.0024001,,,1,0,0.9027,0,104,104,104,1,0,,
,,,,,,,,,,,,yaciais,InflectionalVerbs,NA,NA,NA,4,Low,1.42,word,3,yaciais.wav,left,,L2SPAN_2023_25,2023-09-06_17h45.05.454,auditory_ldt_2023_esp_list3,2021.1.1,MacIntel,60.0024001,,,0,0,1.5026,0,105,105,105,1,1,,
,,,,,,,,,,,,sopita,morfosyllable,diferente,NA,NA,NA,NA,NA,word,"1,2and3",sopita.wav,left,,L2SPAN_2023_25,2023-09-06_17h45.05.454,auditory_ldt_2023_esp_list3,2021.1.1,MacIntel,60.0024001,,,0,0,0.8161,0,106,106,106,1,1,,
,,,,,,,,,,,,rensuto,morfosyllable,NA,NA,NA,NA,NA,NA,pseudoword,"1,2and3",rensuto.wav,right,,L2SPAN_2023_25,2023-09-06_17h45.05.454,auditory_ldt_2023_esp_list3,2021.1.1,MacIntel,60.0024001,,,1,0,2.5057,0,107,107,107,1,0,,
,,,,,,,,,,,,desglamar,visuospatial,NA,NA,NA,NA,NA,NA,pseudoword,"1,2and3",desglamar.wav,right,,L2SPAN_2023_25,2023-09-06_17h45.05.454,auditory_ldt_2023_esp_list3,2021.1.1,MacIntel,60.0024001,,,1,0,0.7536,0,108,108,108,1,0,,
,,,,,,,,,,,,borsuto,morfosyllable,NA,NA,NA,NA,NA,NA,pseudoword,"1,2and3",borsuto.wav,right,,L2SPAN_2023_25,2023-09-06_17h45.05.454,auditory_ldt_2023_esp_list3,2021.1.1,MacIntel,60.0024001,,,1,0,1.7563,0,109,109,109,1,0,,
,,,,,,,,,,,,seguias,InflectionalVerbs,NA,NA,NA,3,High,144.42,word,3,seguias.wav,left,,L2SPAN_2023_25,2023-09-06_17h45.05.454,auditory_ldt_2023_esp_list3,2021.1.1,MacIntel,60.0024001,,,1,1,0.7588,0,110,110,110,1,1,,
,,,,,,,,,,,,gucia,InflectionalVerbs,NA,NA,NA,NA,NA,NA,pseudoword,3,gucia.wav,right,,L2SPAN_2023_25,2023-09-06_17h45.05.454,auditory_ldt_2023_esp_list3,2021.1.1,MacIntel,60.0024001,,,0,1,1.0157,0,111,111,111,1,0,,
,,,,,,,,,,,,trinsuto,morfosyllable,NA,NA,NA,NA,NA,NA,pseudoword,"1,2and3",trinsuto.wav,right,,L2SPAN_2023_25,2023-09-06_17h45.05.454,auditory_ldt_2023_esp_list3,2021.1.1,MacIntel,60.0024001,,,0,1,1.6338,0,112,112,112,1,0,,
,,,,,,,,,,,,lu単ias,InflectionalVerbs,NA,NA,NA,NA,NA,NA,pseudoword,3,lu単ias.wav,right,,L2SPAN_2023_25,2023-09-06_17h45.05.454,auditory_ldt_2023_esp_list3,2021.1.1,MacIntel,60.0024001,,,1,0,0.8223,0,113,113,113,1,0,,
,,,,,,,,,,,,desplazar,visuospatial,NA,NA,yes,NA,NA,NA,word,"1,2and3",desplazar.wav,left,,L2SPAN_2023_25,2023-09-06_17h45.05.454,auditory_ldt_2023_esp_list3,2021.1.1,MacIntel,60.0024001,,,1,1,0.822,0,114,114,114,1,1,,
,,,,,,,,,,,,clubcito,morfosyllable,coincidente,4,NA,NA,NA,NA,word,"1,2and3",clubcito.wav,left,,L2SPAN_2023_25,2023-09-06_17h45.05.454,auditory_ldt_2023_esp_list3,2021.1.1,MacIntel,60.0024001,,,0,0,2.2649,0,115,115,115,1,1,,
,,,,,,,,,,,,piolsuta,morfosyllable,NA,NA,NA,NA,NA,NA,pseudoword,"1,2and3",piolsuta.wav,right,,L2SPAN_2023_25,2023-09-06_17h45.05.454,auditory_ldt_2023_esp_list3,2021.1.1,MacIntel,60.0024001,,,0,1,1.4003,0,116,116,116,1,0,,
,,,,,,,,,,,,amurdar,visuospatial,NA,NA,NA,NA,NA,NA,pseudoword,"1,2and3",amurdar.wav,right,,L2SPAN_2023_25,2023-09-06_17h45.05.454,auditory_ldt_2023_esp_list3,2021.1.1,MacIntel,60.0024001,,,1,0,0.5817,0,117,117,117,1,0,,
,,,,,,,,,,,,alejar,visuospatial,NA,NA,yes,NA,NA,NA,word,"1,2and3",alejar.wav,left,,L2SPAN_2023_25,2023-09-06_17h45.05.454,auditory_ldt_2023_esp_list3,2021.1.1,MacIntel,60.0024001,,,1,1,0.6011,0,118,118,118,1,1,,
,,,,,,,,,,,,rompias,InflectionalVerbs,NA,NA,NA,3,High,35.35,word,3,rompias.wav,left,,L2SPAN_2023_25,2023-09-06_17h45.05.454,auditory_ldt_2023_esp_list3,2021.1.1,MacIntel,60.0024001,,,1,1,1.0188,0,119,119,119,1,1,,
,,,,,,,,,,,,leguto,morfosyllable,NA,NA,NA,NA,NA,NA,pseudoword,"1,2and3",leguto.wav,right,,L2SPAN_2023_25,2023-09-06_17h45.05.454,auditory_ldt_2023_esp_list3,2021.1.1,MacIntel,60.0024001,,,0,1,1.9876,0,120,120,120,1,0,,
,,,,,,,,,,,,ecriais,InflectionalVerbs,NA,NA,NA,NA,NA,NA,pseudoword,3,ecriais.wav,right,,L2SPAN_2023_25,2023-09-06_17h45.05.454,auditory_ldt_2023_esp_list3,2021.1.1,MacIntel,60.0024001,,,1,0,1.3416,0,121,121,121,1,0,,
,,,,,,,,,,,,batia,InflectionalVerbs,NA,NA,NA,2,Low,6.4,word,3,batia.wav,left,,L2SPAN_2023_25,2023-09-06_17h45.05.454,auditory_ldt_2023_esp_list3,2021.1.1,MacIntel,60.0024001,,,1,1,1.4241,0,122,122,122,1,1,,
,,,,,,,,,,,,afemar,visuospatial,NA,NA,NA,NA,NA,NA,pseudoword,"1,2and3",afemar.wav,right,,L2SPAN_2023_25,2023-09-06_17h45.05.454,auditory_ldt_2023_esp_list3,2021.1.1,MacIntel,60.0024001,,,1,0,0.7837,0,123,123,123,1,0,,
,,,,,,,,,,,,endias,InflectionalVerbs,NA,NA,NA,NA,NA,NA,pseudoword,3,endias.wav,right,,L2SPAN_2023_25,2023-09-06_17h45.05.454,auditory_ldt_2023_esp_list3,2021.1.1,MacIntel,60.0024001,,,0,1,1.2011,0,124,124,124,1,0,,
,,,,,,,,,,,,lamias,InflectionalVerbs,NA,NA,NA,3,Low,1.07,word,3,lamias.wav,left,,L2SPAN_2023_25,2023-09-06_17h45.05.454,auditory_ldt_2023_esp_list3,2021.1.1,MacIntel,60.0024001,,,0,0,1.6398,0,125,125,125,1,1,,
,,,,,,,,,,,,vamias,InflectionalVerbs,NA,NA,NA,NA,NA,NA,pseudoword,3,vamias.wav,right,,L2SPAN_2023_25,2023-09-06_17h45.05.454,auditory_ldt_2023_esp_list3,2021.1.1,MacIntel,60.0024001,,,0,1,1.1991,0,126,126,126,1,0,,
,,,,,,,,,,,,despreciar,visuospatial,NA,NA,no,NA,NA,NA,word,"1,2and3",despreciar.wav,left,,L2SPAN_2023_25,2023-09-06_17h45.05.454,auditory_ldt_2023_esp_list3,2021.1.1,MacIntel,60.0024001,,,1,1,1.3365,0,127,127,127,1,1,,
,,,,,,,,,,,,conito,morfosyllable,diferente,NA,NA,NA,NA,NA,word,"1,2and3",conito.wav,left,,L2SPAN_2023_25,2023-09-06_17h45.05.454,auditory_ldt_2023_esp_list3,2021.1.1,MacIntel,60.0024001,,,1,1,1.3377,0,128,128,128,1,1,,
,,,,,,,,,,,,honias,InflectionalVerbs,NA,NA,NA,NA,NA,NA,pseudoword,3,honias.wav,right,,L2SPAN_2023_25,2023-09-06_17h45.05.454,auditory_ldt_2023_esp_list3,2021.1.1,MacIntel,60.0024001,,,0,1,1.5304,0,129,129,129,1,0,,
,,,,,,,,,,,,barria,InflectionalVerbs,NA,NA,NA,2,Low,3.2,word,3,barria.wav,left,,L2SPAN_2023_25,2023-09-06_17h45.05.454,auditory_ldt_2023_esp_list3,2021.1.1,MacIntel,60.0024001,,,1,1,1.4658,0,130,130,130,1,1,,
,,,,,,,,,,,,bisuto,morfosyllable,NA,NA,NA,NA,NA,NA,pseudoword,"1,2and3",bisuto.wav,right,,L2SPAN_2023_25,2023-09-06_17h45.05.454,auditory_ldt_2023_esp_list3,2021.1.1,MacIntel,60.0024001,,,0,1,0.7097,0,131,131,131,1,0,,
,,,,,,,,,,,,desbemar,visuospatial,NA,NA,NA,NA,NA,NA,pseudoword,"1,2and3",desbemar.wav,right,,L2SPAN_2023_25,2023-09-06_17h45.05.454,auditory_ldt_2023_esp_list3,2021.1.1,MacIntel,60.0024001,,,1,0,2.6682,0,132,132,132,1,0,,
,,,,,,,,,,,,jadias,InflectionalVerbs,NA,NA,NA,NA,NA,NA,pseudoword,3,jadias.wav,right,,L2SPAN_2023_25,2023-09-06_17h45.05.454,auditory_ldt_2023_esp_list3,2021.1.1,MacIntel,60.0024001,,,1,0,1.2523,0,133,133,133,1,0,,
,,,,,,,,,,,,apartar,visuospatial,NA,NA,yes,NA,NA,NA,word,"1,2and3",apartar.wav,left,,L2SPAN_2023_25,2023-09-06_17h45.05.454,auditory_ldt_2023_esp_list3,2021.1.1,MacIntel,60.0024001,,,1,1,0.5859,0,134,134,134,1,1,,
,,,,,,,,,,,,librito,morfosyllable,diferente,NA,NA,NA,NA,NA,word,"1,2and3",librito.wav,left,,L2SPAN_2023_25,2023-09-06_17h45.05.454,auditory_ldt_2023_esp_list3,2021.1.1,MacIntel,60.0024001,,,1,1,0.5041,0,135,135,135,1,1,,
,,,,,,,,,,,,cediais,InflectionalVerbs,NA,NA,NA,4,Low,13.68,word,3,cediais.wav,left,,L2SPAN_2023_25,2023-09-06_17h45.05.454,auditory_ldt_2023_esp_list3,2021.1.1,MacIntel,60.0024001,,,1,1,1.1031,0,136,136,136,1,1,,
,,,,,,,,,,,,roncito,morfosyllable,coincidente,3,NA,NA,NA,NA,word,"1,2and3",roncito.wav,left,,L2SPAN_2023_25,2023-09-06_17h45.05.454,auditory_ldt_2023_esp_list3,2021.1.1,MacIntel,60.0024001,,,0,0,1.8225,0,137,137,137,1,1,,
,,,,,,,,,,,,kemuta,morfosyllable,NA,NA,NA,NA,NA,NA,pseudoword,"1,2and3",kemuta.wav,right,,L2SPAN_2023_25,2023-09-06_17h45.05.454,auditory_ldt_2023_esp_list3,2021.1.1,MacIntel,60.0024001,,,0,1,1.5901,0,138,138,138,1,0,,
,,,,,,,,,,,,vesuto,morfosyllable,NA,NA,NA,NA,NA,NA,pseudoword,"1,2and3",vesuto.wav,right,,L2SPAN_2023_25,2023-09-06_17h45.05.454,auditory_ldt_2023_esp_list3,2021.1.1,MacIntel,60.0024001,,,1,0,0.6586,0,139,139,139,1,0,,
,,,,,,,,,,,,subia,InflectionalVerbs,NA,NA,NA,2,High,36.77,word,3,subia.wav,left,,L2SPAN_2023_25,2023-09-06_17h45.05.454,auditory_ldt_2023_esp_list3,2021.1.1,MacIntel,60.0024001,,,1,1,0.956,0,140,140,140,1,1,,
,,,,,,,,,,,,agarrar,visuospatial,NA,NA,yes,NA,NA,NA,word,"1,2and3",agarrar.wav,left,,L2SPAN_2023_25,2023-09-06_17h45.05.454,auditory_ldt_2023_esp_list3,2021.1.1,MacIntel,60.0024001,,,1,1,1.6503,0,141,141,141,1,1,,
,,,,,,,,,,,,ardias,InflectionalVerbs,NA,NA,NA,3,Low,3.38,word,3,ardias.wav,left,,L2SPAN_2023_25,2023-09-06_17h45.05.454,auditory_ldt_2023_esp_list3,2021.1.1,MacIntel,60.0024001,,,1,1,1.3408,0,142,142,142,1,1,,
,,,,,,,,,,,,cogiais,InflectionalVerbs,NA,NA,NA,4,High,17.76,word,3,cogiais.wav,left,,L2SPAN_2023_25,2023-09-06_17h45.05.454,auditory_ldt_2023_esp_list3,2021.1.1,MacIntel,60.0024001,,,1,1,0.7795,0,143,143,143,1,1,,
,,,,,,,,,,,,julsuto,morfosyllable,NA,NA,NA,NA,NA,NA,pseudoword,"1,2and3",julsuto.wav,right,,L2SPAN_2023_25,2023-09-06_17h45.05.454,auditory_ldt_2023_esp_list3,2021.1.1,MacIntel,60.0024001,,,1,0,0.7164,0,144,144,144,1,0,,
,,,,,,,,,,,,desfantar,visuospatial,NA,NA,NA,NA,NA,NA,pseudoword,"1,2and3",desfantar.wav,right,,L2SPAN_2023_25,2023-09-06_17h45.05.454,auditory_ldt_2023_esp_list3,2021.1.1,MacIntel,60.0024001,,,1,0,0.7505,0,145,145,145,1,0,,
,,,,,,,,,,,,piluto,morfosyllable,NA,NA,NA,NA,NA,NA,pseudoword,"1,2and3",piluto.wav,right,,L2SPAN_2023_25,2023-09-06_17h45.05.454,auditory_ldt_2023_esp_list3,2021.1.1,MacIntel,60.0024001,,,1,0,0.9737,0,146,146,146,1,0,,
,,,,,,,,,,,,burias,InflectionalVerbs,NA,NA,NA,NA,NA,NA,pseudoword,3,burias.wav,right,,L2SPAN_2023_25,2023-09-06_17h45.05.454,auditory_ldt_2023_esp_list3,2021.1.1,MacIntel,60.0024001,,,0,1,1.038,0,147,147,147,1,0,,
,,,,,,,,,,,,gelcito,morfosyllable,coincidente,3,NA,NA,NA,NA,word,"1,2and3",gelcito.wav,left,,L2SPAN_2023_25,2023-09-06_17h45.05.454,auditory_ldt_2023_esp_list3,2021.1.1,MacIntel,60.0024001,,,0,0,1.4093,0,148,148,148,1,1,,
,,,,,,,,,,,,moelsuta,morfosyllable,NA,NA,NA,NA,NA,NA,pseudoword,"1,2and3",moelsuta.wav,right,,L2SPAN_2023_25,2023-09-06_17h45.05.454,auditory_ldt_2023_esp_list3,2021.1.1,MacIntel,60.0024001,,,0,1,0.7049,0,149,149,149,1,0,,
,,,,,,,,,,,,flirsuta,morfosyllable,NA,NA,NA,NA,NA,NA,pseudoword,"1,2and3",flirsuta.wav,right,,L2SPAN_2023_25,2023-09-06_17h45.05.454,auditory_ldt_2023_esp_list3,2021.1.1,MacIntel,60.0024001,,,0,1,1.289,0,150,150,150,1,0,,
,,,,,,,,,,,,alargar,visuospatial,NA,NA,yes,NA,NA,NA,word,"1,2and3",alargar.wav,left,,L2SPAN_2023_25,2023-09-06_17h45.05.454,auditory_ldt_2023_esp_list3,2021.1.1,MacIntel,60.0024001,,,0,0,0.7964,0,151,151,151,1,1,,
,,,,,,,,,,,,surria,InflectionalVerbs,NA,NA,NA,NA,NA,NA,pseudoword,3,surria.wav,right,,L2SPAN_2023_25,2023-09-06_17h45.05.454,auditory_ldt_2023_esp_list3,2021.1.1,MacIntel,60.0024001,,,1,0,1.5017,0,152,152,152,1,0,,
,,,,,,,,,,,,besito,morfosyllable,diferente,NA,NA,NA,NA,NA,word,"1,2and3",besito.wav,left,,L2SPAN_2023_25,2023-09-06_17h45.05.454,auditory_ldt_2023_esp_list3,2021.1.1,MacIntel,60.0024001,,,1,1,0.5729,0,153,153,153,1,1,,
,,,,,,,,,,,,caia,InflectionalVerbs,NA,NA,NA,2,High,84.38,word,3,caia.wav,left,,L2SPAN_2023_25,2023-09-06_17h45.05.454,auditory_ldt_2023_esp_list3,2021.1.1,MacIntel,60.0024001,,,1,1,1.1324,0,154,154,154,1,1,,
,,,,,,,,,,,,draias,InflectionalVerbs,NA,NA,NA,NA,NA,NA,pseudoword,3,draias.wav,right,,L2SPAN_2023_25,2023-09-06_17h45.05.454,auditory_ldt_2023_esp_list3,2021.1.1,MacIntel,60.0024001,,,0,1,2.1194,0,155,155,155,1,0,,
,,,,,,,,,,,,seclias,InflectionalVerbs,NA,NA,NA,NA,NA,NA,pseudoword,3,seclias.wav,right,,L2SPAN_2023_25,2023-09-06_17h45.05.454,auditory_ldt_2023_esp_list3,2021.1.1,MacIntel,60.0024001,,,0,1,1.0492,0,156,156,156,1,0,,
,,,,,,,,,,,,afarbar,visuospatial,NA,NA,NA,NA,NA,NA,pseudoword,"1,2and3",afarbar.wav,right,,L2SPAN_2023_25,2023-09-06_17h45.05.454,auditory_ldt_2023_esp_list3,2021.1.1,MacIntel,60.0024001,,,1,0,0.6715,0,157,157,157,1,0,,
,,,,,,,,,,,,huevito,morfosyllable,diferente,NA,NA,NA,NA,NA,word,"1,2and3",huevito.wav,left,,L2SPAN_2023_25,2023-09-06_17h45.05.454,auditory_ldt_2023_esp_list3,2021.1.1,MacIntel,60.0024001,,,0,0,0.9622,0,158,158,158,1,1,,
,,,,,,,,,,,,goia,InflectionalVerbs,NA,NA,NA,NA,NA,NA,pseudoword,3,goia.wav,right,,L2SPAN_2023_25,2023-09-06_17h45.05.454,auditory_ldt_2023_esp_list3,2021.1.1,MacIntel,60.0024001,,,1,0,2.6728,0,159,159,159,1,0,,
,,,,,,,,,,,,destrozar,visuospatial,NA,NA,yes,NA,NA,NA,word,"1,2and3",destrozar.wav,left,,L2SPAN_2023_25,2023-09-06_17h45.05.454,auditory_ldt_2023_esp_list3,2021.1.1,MacIntel,60.0024001,,,1,1,1.3472,0,160,160,160,1,1,,
,,,,,,,,,,,,arruinar,visuospatial,NA,NA,no,NA,NA,NA,word,"1,2and3",arruinar.wav,left,,L2SPAN_2023_25,2023-09-06_17h45.05.454,auditory_ldt_2023_esp_list3,2021.1.1,MacIntel,60.0024001,,,1,1,0.8864,0,161,161,161,1,1,,
,,,,,,,,,,,,acallar,visuospatial,NA,NA,no,NA,NA,NA,word,"1,2and3",acallar.wav,left,,L2SPAN_2023_25,2023-09-06_17h45.05.454,auditory_ldt_2023_esp_list3,2021.1.1,MacIntel,60.0024001,,,1,1,0.4848,0,162,162,162,1,1,,
,,,,,,,,,,,,mielcita,morfosyllable,coincidente,4,NA,NA,NA,NA,word,"1,2and3",mielcita.wav,left,,L2SPAN_2023_25,2023-09-06_17h45.05.454,auditory_ldt_2023_esp_list3,2021.1.1,MacIntel,60.0024001,,,0,0,0.5711,0,163,163,163,1,1,,
,,,,,,,,,,,,selsuto,morfosyllable,NA,NA,NA,NA,NA,NA,pseudoword,"1,2and3",selsuto.wav,right,,L2SPAN_2023_25,2023-09-06_17h45.05.454,auditory_ldt_2023_esp_list3,2021.1.1,MacIntel,60.0024001,,,0,1,1.7954,0,164,164,164,1,0,,
,,,,,,,,,,,,durciais,InflectionalVerbs,NA,NA,NA,NA,NA,NA,pseudoword,3,durciais.wav,right,,L2SPAN_2023_25,2023-09-06_17h45.05.454,auditory_ldt_2023_esp_list3,2021.1.1,MacIntel,60.0024001,,,1,0,2.8399,0,165,165,165,1,0,,
,,,,,,,,,,,,acertar,visuospatial,NA,NA,no,NA,NA,NA,word,"1,2and3",acertar.wav,left,,L2SPAN_2023_25,2023-09-06_17h45.05.454,auditory_ldt_2023_esp_list3,2021.1.1,MacIntel,60.0024001,,,1,1,0.5752,0,166,166,166,1,1,,
,,,,,,,,,,,,apencrar,visuospatial,NA,NA,NA,NA,NA,NA,pseudoword,"1,2and3",apencrar.wav,right,,L2SPAN_2023_25,2023-09-06_17h45.05.454,auditory_ldt_2023_esp_list3,2021.1.1,MacIntel,60.0024001,,,1,0,1.3051,0,167,167,167,1,0,,
,,,,,,,,,,,,corria,InflectionalVerbs,NA,NA,NA,2,High,51.87,word,3,corria.wav,left,,L2SPAN_2023_25,2023-09-06_17h45.05.454,auditory_ldt_2023_esp_list3,2021.1.1,MacIntel,60.0024001,,,1,1,1.2868,0,168,168,168,1,1,,
,,,,,,,,,,,,acortar,visuospatial,NA,NA,yes,NA,NA,NA,word,"1,2and3",acortar.wav,left,,L2SPAN_2023_25,2023-09-06_17h45.05.454,auditory_ldt_2023_esp_list3,2021.1.1,MacIntel,60.0024001,,,1,1,1.9613,0,169,169,169,1,1,,
,,,,,,,,,,,,,,,,,,,,,,,,,L2SPAN_2023_25,2023-09-06_17h45.05.454,auditory_ldt_2023_esp_list3,2021.1.1,MacIntel,60.0024001,,,,,,,,,,,,space,4.2708
